Folder: flash_scratch/tomke/20240809_Si_on_TiO2/20240809/corrected Raman data export (part 2)

File: S_60mA.txt
768.549	1.34378
766.512	1.7801
764.475	1.43448
762.437	0.913298
760.398	0.97168
758.359	1.59136
756.32	1.20869
754.28	1.34675
752.24	1.48967
750.199	1.47553
748.158	1.13152
746.116	1.06056
744.074	1.45784
742.032	0.914167
739.989	1.54965
737.945	1.09549
735.901	1.00131
733.857	1.3428
731.812	1.28892
729.766	0.987213
727.721	1.24639
725.674	1.53848
723.628	0.994707
721.58	1.21033
719.533	0.93312
717.485	1.26946
715.436	0.978631
713.387	1.20496
711.337	1.20758
709.287	1.30111
707.237	0.813887
705.186	1.48838
703.135	1.02077
701.083	0.936493
699.031	1.57
696.978	0.589182
694.925	0.629538
692.871	2.27534
690.817	0.748809
688.762	0.702767
686.707	1.14517
684.651	0.990664
682.595	1.22729
680.539	1.15792
678.482	1.3092
676.425	1.30029
674.367	0.811727
672.308	1.78636
670.25	0.533033
668.19	1.14576
666.131	1.61456
664.07	0.519698
662.01	1.70918
659.948	0.919107
657.887	0.499158
655.825	1.05228
653.762	0.667429
651.699	0.456516
649.636	0.768349
647.572	0.695709
645.507	1.3983
643.442	1.30924
641.377	0.954396
639.311	1.30369
637.245	1.13921
635.178	1.12557
633.111	1.53508
631.043	0.86198
628.975	1.28291
626.906	0.709798
624.837	0.180967
622.768	1.45444
620.698	1.03252
618.627	1.23772
616.556	0.52178
614.485	1.61574
612.413	1.38153
610.34	0.914176
608.267	0.764124
606.194	1.06578
604.12	0.896053
602.046	1.15374
599.971	1.55355
597.896	0.669631
595.82	0.889149
593.744	0.743682
591.667	0.657524
589.59	0.488202
587.513	0.951762
585.434	0.351444
583.356	0.68574
581.277	0.838016
579.197	0.685687
577.117	0.624713
575.037	1.16442
572.956	0.521864
570.875	0.437271
568.793	0.388113
566.71	0.562933
564.628	0.569309
562.544	0.515338
560.461	0.736709
558.376	0.44726
556.292	0.263482
554.206	0.448611
552.121	0.445444
550.035	0.360947
547.948	0.536411
545.861	0.358264
543.773	0.135069
541.685	0.651916
539.597	0.587153
537.508	0.622347
535.418	0.514596
533.328	0.685796
531.238	0.822342
529.147	0.987909
527.056	1.11713
524.964	1.09661
522.871	1.43753
520.778	1.74453
518.685	2.09687
516.591	2.5697
514.497	3.44664
512.402	4.30979
510.307	6.27167
508.211	8.40873
506.115	11.921
504.019	14.8986
501.922	16.0517
499.824	14.9124
497.726	12.052
495.627	9.12563
493.528	7.19588
491.429	5.47355
489.329	3.89446
487.228	3.40862
485.127	2.7305
483.026	2.10546
480.924	1.99345
478.821	1.6877
476.718	2.05502
474.615	1.00719
472.511	1.45977
470.407	1.23638
468.302	1.21776
466.197	0.830156
464.091	0.238129
461.985	0.992762
459.878	0.847964
457.771	0.696513
455.663	0.591329
453.555	0.49842
451.446	0.258896
449.337	0.0272444
447.227	0.791342
445.117	-0.186556
443.006	0.0792178
440.895	0.351229
438.784	0.0217378
436.671	-0.0420289
434.559	0.00196444
432.446	0.408198
430.332	0.280316
428.218	0.119407
426.104	0.559816
423.989	0.88664
421.873	0.234493
419.757	0.731438
417.641	-0.0854689
415.524	0.275687
413.407	0.332469
411.289	0.199469
409.17	0.230749
407.051	0.611344
404.932	0.296493
402.812	0.339218
400.692	0.557729
398.571	0.0820556
396.45	0.578636
394.328	0.000426667
392.205	0.115982
390.083	-0.126413
387.959	0.780133
385.836	0.105316
383.711	0.06086
381.587	0.0671689
379.461	0.492856
377.336	0.390111
375.209	0.160798
373.083	0.0378956
370.955	0.0482489
368.828	0.0979911
366.7	0.177836
364.571	0.48752
362.442	0.425013
360.312	0.101222
358.182	0.174642
356.051	0.423767
353.92	0.109933
351.789	0.271189
349.657	0.365787
347.524	0.120551
345.391	-0.15578
343.257	-0.257527
341.123	0.541062
338.989	0.0815222
336.854	0.241716
334.718	0.298933
332.582	0.112696
330.445	-0.150996
328.308	0.300684
326.171	0.0128978
324.033	-0.0226244
321.894	-0.106524
319.755	0.319816
317.616	0.184858
315.476	0.844673
313.335	0.471098
311.194	0.824082
309.053	0.514124
306.911	0.697218
304.768	0.676104
302.625	0.593053
300.482	0.718211
298.338	0.755038
296.194	1.1589
294.049	0.841156
291.903	1.02936
289.757	1.05702
287.611	0.349027
285.464	0.579038
283.316	0.178864
281.169	0.0384044
279.02	0.162729
276.871	0.228482
274.722	-0.237222
272.572	-0.695456
270.421	-0.912404
268.271	-1.36009
266.119	-2.25438
263.967	-3.19888
261.815	-3.7512
259.662	-4.5528
257.508	-5.051
255.355	-5.51351
253.2	-5.78854
251.045	-5.84497
248.89	-6.17731
246.734	-6.12239
244.578	-6.1618
242.421	-6.16951
240.263	-6.16891
238.105	-6.22455
235.947	-6.23979
233.788	-6.20713
231.629	-6.18504
229.469	-6.33361
227.308	-6.2315
225.147	-6.25727
222.986	-6.29781
220.824	-6.30617
218.662	-6.32255
216.499	-6.34086
214.335	-6.29577
212.171	-6.28733
210.007	-6.34642
207.842	-6.24714
206.11	-6.32296