Folder: flash_scratch/tomke/20240809_Si_on_TiO2/20240809/corrected Raman data export

File: AS_0mA.txt
-194.586	-0.0155556
-196.846	-0.0378889
-199.106	-0.0531111
-201.367	0.0191111
-203.629	0.0486667
-205.891	0.0378889
-208.154	0.0231111
-210.417	-0.0322222
-212.681	-0.0266667
-214.945	-0.0368889
-217.21	-0.0436667
-219.475	0.109111
-221.741	0.0471111
-224.008	-0.0112222
-226.275	-0.0257778
-228.542	0.0388889
-230.81	0.0271111
-233.079	0.0144444
-235.348	-0.0527778
-237.618	0.0407778
-239.888	-0.0384444
-242.159	-0.0613333
-244.43	0.00633333
-246.702	-0.00133333
-248.974	0.0275556
-251.247	0.00355556
-253.52	-0.011
-255.794	-0.0383333
-258.069	0.00366667
-260.344	0.0288889
-262.62	-0.0254444
-264.896	0.061
-267.173	0.0712222
-269.45	0.101
-271.728	0.0773333
-274.006	0.0732222
-276.285	0.179444
-278.564	0.131111
-280.844	0.165333
-283.125	0.227
-285.406	0.238333
-287.688	0.278778
-289.97	0.227778
-292.252	0.269556
-294.536	0.237889
-296.82	0.287778
-299.104	0.267333
-301.389	0.268222
-303.674	0.336444
-305.96	0.291556
-308.247	0.276667
-310.534	0.283111
-312.821	0.225
-315.11	0.248778
-317.398	0.265333
-319.687	0.270111
-321.977	0.269556
-324.268	0.229333
-326.559	0.241333
-328.85	0.233889
-331.142	0.200333
-333.434	0.207
-335.728	0.170778
-338.021	0.21
-340.315	0.156444
-342.61	0.163556
-344.905	0.163778
-347.201	0.130111
-349.498	0.207889
-351.795	0.109556
-354.092	0.113556
-356.39	0.0622222
-358.689	0.0544444
-360.988	0.131778
-363.287	0.148222
-365.588	0.073
-367.889	0.149
-370.19	0.0383333
-372.492	0.0811111
-374.794	0.0768889
-377.097	0.0883333
-379.401	0.0831111
-381.705	0.0343333
-384.009	0.0501111
-386.315	0.0606667
-388.62	0.0721111
-390.927	0.112333
-393.234	0.0923333
-395.541	0.0402222
-397.849	0.119444
-400.158	0.0896667
-402.467	0.138
-404.776	0.0283333
-407.086	0.0805556
-409.397	0.0484444
-411.708	0.0558889
-414.02	0.0743333
-416.333	0.0807778
-418.646	0.0998889
-420.959	0.0456667
-423.273	0.110111
-425.588	0.0673333
-427.903	-0.00411111
-430.219	0.0782222
-432.535	0.0875556
-434.852	-0.00444444
-437.169	0.00611111
-439.487	0.101111
-441.806	0.0985556
-444.125	0.0874444
-446.445	0.0252222
-448.765	0.0294444
-451.086	0.108667
-453.407	0.0164444
-455.729	0.0496667
-458.051	0.0503333
-460.374	0.0185556
-462.698	0.0622222
-465.022	0.0216667
-467.347	-0.00933333
-469.672	0.0421111
-471.998	0.0458889
-474.324	0.0293333
-476.651	0.0192222
-478.978	0.0221111
-481.306	0.0283333
-483.635	0.0704444
-485.964	0.101111
-488.294	0.120889
-490.624	0.0948889
-492.955	0.0277778
-495.286	0.0796667
-497.618	0.115111
-499.951	0.106333
-502.284	0.124556
-504.618	0.141444
-506.952	0.244222
-509.287	0.363778
-511.622	0.498111
-513.958	1.18933
-516.294	4.04833
-518.631	7.90511
-520.969	6.76111
-523.307	3.21489
-525.646	1.32533
-527.985	0.505444
-530.325	0.310111
-532.665	0.246889
-535.006	0.209444
-537.348	0.179222
-539.69	0.0934444
-542.033	0.0787778
-544.376	0.0364444
-546.72	0.0827778
-549.064	0.0808889
-551.409	0.0494444
-553.755	0.0675556
-556.101	0.00544444
-558.448	0.0891111
-560.795	-0.0162222
-563.143	0.0678889
-565.491	0.0655556
-567.84	-0.00322222
-570.189	0.0213333
-572.539	-0.031
-574.89	0.0968889
-577.241	0.0621111
-579.593	0.0922222
-581.945	-0.023
-584.298	0.046
-586.652	0.0714444
-589.006	0.0331111
-591.361	0.0653333
-593.716	0.0346667
-596.072	0.00366667
-598.428	0.0473333
-600.785	0.0661111
-603.142	0.0381111
-605.5	0.0462222
-607.859	0.0522222
-610.218	0.0966667
-612.578	0.0748889
-614.938	0.0711111
-617.299	0.0407778
-619.661	0.0845556
-622.023	0.0648889
-624.385	0.000777778
-626.749	0.0815556
-629.112	0.0367778
-631.477	0.0428889
-633.842	0.0565556
-636.207	-0.00466667
-638.573	0.0208889
-640.94	0.00777778
-643.307	0.0341111
-645.675	0.0151111
-648.043	0.0238889
-650.412	0.0428889
-652.782	0.0411111
-655.152	0.0158889
-657.523	0.0126667
-659.894	0.0576667
-662.266	-0.00111111
-664.638	-0.00744444
-667.011	0.0325556
-669.385	0.0616667
-671.759	0.0142222
-674.134	0.0156667
-676.509	-0.0266667
-678.885	-0.0115556
-681.261	-0.0331111
-683.638	-0.0463333
-686.016	-0.00344444
-688.394	-0.00144444
-690.773	0.0155556
-693.152	0.0548889
-695.532	0.0154444
-697.913	0.00855556
-700.294	0.00122222
-702.676	0.0483333
-705.058	0.000555556
-707.441	-0.0418889
-709.824	-0.00544444
-712.208	-0.0353333
-714.593	0.0227778
-716.978	-0.0268889
-719.364	-0.00833333
-721.75	0.0291111
-724.137	-0.0214444
-726.525	0.006
-728.913	0.0513333
-731.301	-0.0377778
-733.691	0.0247778
-736.08	0.00377778
-738.471	-0.0113333
-740.862	-0.0323333
-743.253	0.0256667
-745.646	0.0315556
-748.038	0.022
-750.432	-0.00988889
-752.826	-0.00788889
-755.22	0.0635556
-757.615	-0.0194444
-760.011	0.0365556
-762.407	0.0123333
-764.804	0.0153333
-767.201	0.00377778
-769.599	0.0468889
-771.998	0.0426667
-774.397	-0.0215556
-776.797	0.0376667
-779.197	0.0127778
-781.598	0.0233333
-784	0.0305556
-786.402	0.0668889
-788.805	0.0444444
-791.208	0.00122222
-793.612	-0.0378889
-796.016	0.0331111
-798.421	0.0368889
-800.827	0.0565556
-803.233	-0.0462222
-805.64	-0.0114444
-808.048	0.0265556
-810.456	-0.0276667
-812.864	0.00166667
-815.274	0.0756667
-817.683	0.0495556
-819.612	0.0461111

File: AS_40mA.txt
-194.586	-0.263742
-196.846	-0.204292
-199.106	-0.240295
-201.367	-0.359084
-203.629	-0.33342
-205.891	-0.337452
-208.154	-0.213548
-210.417	-0.313061
-212.681	-0.169074
-214.945	-0.221033
-217.21	-0.264679
-219.475	-0.282388
-221.741	-0.195422
-224.008	-0.179929
-226.275	-0.298224
-228.542	-0.232391
-230.81	-0.364503
-233.079	-0.354745
-235.348	-0.278852
-237.618	-0.281378
-239.888	-0.263417
-242.159	-0.325765
-244.43	-0.251527
-246.702	-0.32392
-248.974	-0.256185
-251.247	-0.262231
-253.52	-0.186082
-255.794	-0.13366
-258.069	-0.212411
-260.344	-0.100668
-262.62	-0.106238
-264.896	-0.00597689
-267.173	0.0360942
-269.45	0.277531
-271.728	0.54659
-274.006	0.774821
-276.285	0.95734
-278.564	1.13088
-280.844	1.41062
-283.125	1.57425
-285.406	1.86783
-287.688	1.87539
-289.97	1.84727
-292.252	2.15615
-294.536	1.97279
-296.82	1.99957
-299.104	2.07716
-301.389	1.72698
-303.674	1.64094
-305.96	1.61447
-308.247	1.58021
-310.534	1.28267
-312.821	1.39507
-315.11	1.52043
-317.398	1.32043
-319.687	1.31024
-321.977	1.55847
-324.268	1.21927
-326.559	1.32501
-328.85	1.30403
-331.142	1.32334
-333.434	1.21002
-335.728	1.13141
-338.021	1.00223
-340.315	1.16961
-342.61	1.15567
-344.905	1.13798
-347.201	0.982555
-349.498	1.01437
-351.795	0.935826
-354.092	1.08927
-356.39	0.926567
-358.689	0.939147
-360.988	0.923557
-363.287	0.912389
-365.588	1.03822
-367.889	0.872379
-370.19	0.7869
-372.492	0.906699
-374.794	0.809061
-377.097	0.649733
-379.401	0.728818
-381.705	0.799179
-384.009	0.82176
-386.315	0.879273
-388.62	0.853836
-390.927	0.78616
-393.234	0.734395
-395.541	0.683684
-397.849	0.757465
-400.158	0.77682
-402.467	0.699943
-404.776	0.910821
-407.086	0.744921
-409.397	0.680005
-411.708	0.757349
-414.02	0.721641
-416.333	0.721445
-418.646	0.76538
-420.959	0.877077
-423.273	0.947284
-425.588	0.735396
-427.903	0.7167
-430.219	0.674009
-432.535	0.479367
-434.852	0.71085
-437.169	0.686144
-439.487	0.622295
-441.806	0.441308
-444.125	0.374745
-446.445	0.61114
-448.765	0.521737
-451.086	0.563831
-453.407	0.607808
-455.729	0.584894
-458.051	0.758752
-460.374	0.548144
-462.698	0.680668
-465.022	0.707422
-467.347	0.85701
-469.672	0.726908
-471.998	0.986331
-474.324	1.03452
-476.651	1.00676
-478.978	1.30132
-481.306	1.49183
-483.635	1.61008
-485.964	1.88653
-488.294	2.28088
-490.624	3.03845
-492.955	3.99575
-495.286	5.55751
-497.618	7.80865
-499.951	10.6348
-502.284	12.2501
-504.618	11.5942
-506.952	9.26586
-509.287	6.36044
-511.622	4.47226
-513.958	3.07844
-516.294	2.2291
-518.631	1.87262
-520.969	1.35766
-523.307	1.18478
-525.646	0.967936
-527.985	0.859355
-530.325	0.715332
-532.665	0.651273
-535.006	0.634059
-537.348	0.477058
-539.69	0.339266
-542.033	0.245321
-544.376	0.222132
-546.72	0.366441
-549.064	0.256482
-551.409	0.326206
-553.755	0.228821
-556.101	0.32019
-558.448	0.217618
-560.795	0.0840071
-563.143	0.224203
-565.491	0.108674
-567.84	0.222132
-570.189	0.20197
-572.539	0.0793084
-574.89	0.205751
-577.241	0.224028
-579.593	0.242651
-581.945	0.219051
-584.298	0.317045
-586.652	0.28088
-589.006	0.220128
-591.361	0.284148
-593.716	0.223522
-596.072	0.406825
-598.428	0.353207
-600.785	0.452853
-603.142	0.271205
-605.5	0.127326
-607.859	0.264807
-610.218	0.29466
-612.578	0.128578
-614.938	0.246516
-617.299	0.275796
-619.661	0.111399
-622.023	0.297908
-624.385	0.101447
-626.749	0.140357
-629.112	0.224107
-631.477	0.149127
-633.842	0.257771
-636.207	0.160091
-638.573	0.225198
-640.94	0.0572942
-643.307	0.128233
-645.675	0.2104
-648.043	0.18042
-650.412	0.138608
-652.782	0.14419
-655.152	0.0292693
-657.523	0.157735
-659.894	0.12658
-662.266	0.0894276
-664.638	0.20222
-667.011	0.0839876
-669.385	0.150588
-671.759	0.210247
-674.134	0.160542
-676.509	0.0142187
-678.885	0.061296
-681.261	0.0409778
-683.638	0.0807022
-686.016	0.0860036
-688.394	0.0275804
-690.773	-0.00946311
-693.152	-0.0483893
-695.532	-0.0623058
-697.913	0.060784
-700.294	0.0262844
-702.676	-0.0755253
-705.058	-0.0970507
-707.441	-0.0937813
-709.824	0.0210578
-712.208	-0.0276996
-714.593	-0.0931911
-716.978	-0.00282489
-719.364	0.0133031
-721.75	-0.066464
-724.137	-0.0614187
-726.525	-0.149493
-728.913	-0.0143893
-731.301	0.0110507
-733.691	-0.04456
-736.08	-0.0266578
-738.471	-0.00259022
-740.862	-0.0918276
-743.253	-0.020128
-745.646	-0.0639822
-748.038	0.0369938
-750.432	-0.0642987
-752.826	-0.0878382
-755.22	-0.0973013
-757.615	-0.107355
-760.011	-0.0884409
-762.407	0.0128036
-764.804	-0.020944
-767.201	-0.0956569
-769.599	-0.0259271
-771.998	-0.0461707
-774.397	-0.0131787
-776.797	-0.0861173
-779.197	-0.0496942
-781.598	-0.0764231
-784	-0.0474898
-786.402	0.0378471
-788.805	-0.0181404
-791.208	-0.0422969
-793.612	0.0265724
-796.016	-0.0646364
-798.421	-0.102926
-800.827	-0.0106169
-803.233	0.0393547
-805.64	-0.112423
-808.048	-0.0631449
-810.456	-0.090432
-812.864	-0.0463022
-815.274	-0.004304
-817.683	-0.123461
-819.612	-0.159511

File: AS_70mA.txt
-194.586	-1.86345
-196.846	-2.01193
-199.106	-1.90377
-201.367	-1.78513
-203.629	-1.97957
-205.891	-1.90439
-208.154	-2.05444
-210.417	-1.99523
-212.681	-2.03499
-214.945	-1.82979
-217.21	-1.99424
-219.475	-2.00922
-221.741	-1.98766
-224.008	-1.97773
-226.275	-2.10247
-228.542	-2.15047
-230.81	-2.0573
-233.079	-1.80603
-235.348	-1.9926
-237.618	-1.9658
-239.888	-2.08086
-242.159	-2.16601
-244.43	-2.11156
-246.702	-1.96539
-248.974	-1.87514
-251.247	-2.00489
-253.52	-1.84175
-255.794	-1.84718
-258.069	-1.88669
-260.344	-1.80995
-262.62	-1.6309
-264.896	-1.33265
-267.173	-0.862588
-269.45	-0.721196
-271.728	-0.0395578
-274.006	0.384507
-276.285	1.21936
-278.564	1.80399
-280.844	1.58116
-283.125	2.40353
-285.406	2.64587
-287.688	2.67626
-289.97	3.27471
-292.252	3.46433
-294.536	3.12559
-296.82	2.9253
-299.104	3.59818
-301.389	3.56405
-303.674	3.12152
-305.96	2.49383
-308.247	2.44309
-310.534	2.53094
-312.821	2.62863
-315.11	3.63046
-317.398	2.94087
-319.687	2.07688
-321.977	1.82652
-324.268	3.12378
-326.559	2.22696
-328.85	2.13018
-331.142	2.6961
-333.434	2.89687
-335.728	2.636
-338.021	2.29357
-340.315	2.64948
-342.61	1.74988
-344.905	2.06824
-347.201	2.13832
-349.498	2.17118
-351.795	1.97932
-354.092	1.71423
-356.39	2.50376
-358.689	2.1299
-360.988	1.73114
-363.287	1.71465
-365.588	1.7705
-367.889	2.01202
-370.19	1.48252
-372.492	2.08722
-374.794	1.14501
-377.097	1.67106
-379.401	1.8443
-381.705	2.28044
-384.009	1.78591
-386.315	1.81077
-388.62	1.93248
-390.927	2.24412
-393.234	1.64102
-395.541	1.80939
-397.849	1.22653
-400.158	2.15199
-402.467	1.97888
-404.776	1.65157
-407.086	1.82322
-409.397	2.04517
-411.708	2.03122
-414.02	1.86156
-416.333	1.60023
-418.646	1.52521
-420.959	1.57318
-423.273	1.39772
-425.588	1.60424
-427.903	1.48843
-430.219	1.59992
-432.535	1.16245
-434.852	1.73873
-437.169	1.69096
-439.487	1.34803
-441.806	1.47869
-444.125	1.28373
-446.445	1.40655
-448.765	1.70254
-451.086	1.90225
-453.407	1.63996
-455.729	1.78742
-458.051	1.27222
-460.374	1.55116
-462.698	1.85698
-465.022	1.51892
-467.347	1.77204
-469.672	1.74797
-471.998	1.95628
-474.324	2.33866
-476.651	2.3702
-478.978	2.68569
-481.306	2.37431
-483.635	3.32665
-485.964	3.69341
-488.294	3.78679
-490.624	5.85058
-492.955	7.47435
-495.286	8.70647
-497.618	10.9518
-499.951	12.3145
-502.284	11.1709
-504.618	8.44695
-506.952	7.02999
-509.287	5.15621
-511.622	3.79276
-513.958	3.09014
-516.294	2.61858
-518.631	1.94978
-520.969	2.10059
-523.307	1.87715
-525.646	1.32313
-527.985	1.13051
-530.325	1.42385
-532.665	1.04571
-535.006	0.874957
-537.348	1.07101
-539.69	0.911833
-542.033	1.43992
-544.376	1.01872
-546.72	0.895413
-549.064	0.897671
-551.409	1.07765
-553.755	1.31626
-556.101	0.680478
-558.448	0.428728
-560.795	1.2953
-563.143	0.812256
-565.491	0.807679
-567.84	0.926236
-570.189	1.05278
-572.539	1.02121
-574.89	0.787399
-577.241	1.10875
-579.593	1.29735
-581.945	0.728009
-584.298	1.02782
-586.652	0.896903
-589.006	1.50908
-591.361	0.873267
-593.716	0.748462
-596.072	0.677462
-598.428	0.724593
-600.785	0.7854
-603.142	0.643239
-605.5	0.683469
-607.859	1.31016
-610.218	0.444421
-612.578	0.622624
-614.938	0.585162
-617.299	0.79421
-619.661	0.740734
-622.023	0.785024
-624.385	0.161882
-626.749	1.12271
-629.112	0.692543
-631.477	0.25379
-633.842	1.01385
-636.207	0.606361
-638.573	0.774132
-640.94	0.868432
-643.307	0.775011
-645.675	0.721113
-648.043	0.155802
-650.412	0.570012
-652.782	0.452884
-655.152	0.325956
-657.523	0.533478
-659.894	0.657378
-662.266	0.454879
-664.638	0.519138
-667.011	0.195628
-669.385	0.634794
-671.759	0.410324
-674.134	0.343158
-676.509	0.151533
-678.885	0.48846
-681.261	0.0661422
-683.638	0.589766
-686.016	0.275126
-688.394	0.226958
-690.773	0.00235333
-693.152	0.28961
-695.532	0.412604
-697.913	0.431524
-700.294	0.345317
-702.676	0.395164
-705.058	0.486776
-707.441	0.0982667
-709.824	0.703202
-712.208	-0.0205644
-714.593	0.346792
-716.978	0.12604
-719.364	0.14191
-721.75	0.650787
-724.137	-0.0392133
-726.525	-0.143169
-728.913	0.377242
-731.301	0.350102
-733.691	0.0584656
-736.08	0.00512889
-738.471	0.01347
-740.862	-0.512857
-743.253	0.123922
-745.646	-0.0965689
-748.038	0.122078
-750.432	-0.341789
-752.826	-0.0533767
-755.22	-0.365076
-757.615	0.0626211
-760.011	0.279634
-762.407	-0.0741211
-764.804	-0.152914
-767.201	-0.1663
-769.599	0.0362022
-771.998	-0.266844
-774.397	-0.228639
-776.797	0.0520578
-779.197	-0.0335089
-781.598	-0.115544
-784	-0.225729
-786.402	0.200162
-788.805	0.149381
-791.208	-0.109946
-793.612	-0.0776322
-796.016	-0.0632444
-798.421	-0.0266667
-800.827	-0.157914
-803.233	0.00711667
-805.64	-0.142479
-808.048	0.119212
-810.456	-0.314613
-812.864	-0.385582
-815.274	-0.161449
-817.683	0.0929111
-819.612	-0.139083

File: S_40mA.txt
768.549	0.351111
766.512	0.572667
764.475	0.403333
762.437	0.371111
760.398	0.180667
758.359	0.431778
756.32	0.318444
754.28	0.370889
752.24	0.395333
750.199	0.268
748.158	0.603333
746.116	0.500889
744.074	0.273778
742.032	0.205556
739.989	0.232444
737.945	0.357556
735.901	0.428
733.857	0.263556
731.812	0.360889
729.766	0.272889
727.721	0.318
725.674	0.297556
723.628	0.489111
721.58	0.322667
719.533	0.397333
717.485	0.206444
715.436	0.148
713.387	0.426667
711.337	0.451111
709.287	0.284667
707.237	0.25
705.186	0.146444
703.135	0.438444
701.083	0.454222
699.031	0.257778
696.978	0.695556
694.925	0.599778
692.871	0.403111
690.817	0.391111
688.762	0.309111
686.707	0.293778
684.651	0.317111
682.595	0.445333
680.539	0.174
678.482	0.467333
676.425	0.361556
674.367	0.494444
672.308	0.537778
670.25	0.346
668.19	0.436667
666.131	0.452667
664.07	0.476667
662.01	0.578889
659.948	0.443556
657.887	0.547778
655.825	0.142444
653.762	0.522889
651.699	0.591778
649.636	0.599111
647.572	0.47
645.507	0.788667
643.442	0.581778
641.377	0.781556
639.311	0.538222
637.245	0.732222
635.178	0.380222
633.111	0.781333
631.043	0.798889
628.975	0.428
626.906	0.68
624.837	0.494222
622.768	0.825556
620.698	0.733333
618.627	0.546222
616.556	0.331333
614.485	0.526222
612.413	0.696444
610.34	0.744
608.267	0.636444
606.194	0.381111
604.12	0.613333
602.046	0.677556
599.971	0.862667
597.896	0.693778
595.82	0.686222
593.744	0.520667
591.667	0.449778
589.59	0.581556
587.513	0.559556
585.434	0.474222
583.356	0.469333
581.277	0.431333
579.197	0.245333
577.117	0.395111
575.037	0.392889
572.956	0.4
570.875	0.474444
568.793	0.524222
566.71	0.561556
564.628	0.428222
562.544	0.648444
560.461	0.300889
558.376	0.484889
556.292	0.568
554.206	0.429778
552.121	0.647333
550.035	0.398444
547.948	0.554444
545.861	0.549778
543.773	0.492889
541.685	0.744222
539.597	0.811556
537.508	0.610444
535.418	0.847778
533.328	0.824222
531.238	0.810222
529.147	1.29644
527.056	1.43711
524.964	1.56111
522.871	1.734
520.778	1.97022
518.685	2.43156
516.591	3.22889
514.497	3.67422
512.402	5.38022
510.307	7.69044
508.211	10.8269
506.115	14.3447
504.019	17.2242
501.922	17.1227
499.824	14.7302
497.726	11.6529
495.627	8.31311
493.528	6.498
491.429	4.84511
489.329	4.01911
487.228	3.22533
485.127	2.62133
483.026	2.392
480.924	1.97089
478.821	1.72667
476.718	1.90578
474.615	1.75556
472.511	1.34
470.407	1.51822
468.302	1.39733
466.197	1.25089
464.091	1.034
461.985	1.17289
459.878	0.920667
457.771	0.851556
455.663	0.911111
453.555	0.814889
451.446	0.823556
449.337	0.728
447.227	0.717556
445.117	0.688889
443.006	0.955111
440.895	0.914667
438.784	0.915111
436.671	0.656
434.559	0.580222
432.446	0.866
430.332	0.873556
428.218	0.803556
426.104	0.921111
423.989	0.994222
421.873	1.03644
419.757	0.875556
417.641	1.03533
415.524	1.01133
413.407	1.07867
411.289	0.748444
409.17	0.869778
407.051	1.08578
404.932	0.976889
402.812	1.14111
400.692	0.625333
398.571	1.19244
396.45	1.09556
394.328	1.11933
392.205	0.984889
390.083	1.10933
387.959	0.995111
385.836	0.968444
383.711	0.985333
381.587	1.00756
379.461	0.935333
377.336	0.871556
375.209	0.876
373.083	1.02978
370.955	1.09333
368.828	0.930222
366.7	0.880222
364.571	0.96
362.442	0.936222
360.312	0.899778
358.182	1.05778
356.051	1.02667
353.92	0.916222
351.789	1.00178
349.657	1.444
347.524	1.26933
345.391	1.08356
343.257	1.142
341.123	1.27156
338.989	1.22933
336.854	1.22622
334.718	1.34489
332.582	1.25978
330.445	1.24
328.308	1.31978
326.171	1.39133
324.033	1.35289
321.894	1.32378
319.755	1.47867
317.616	1.59867
315.476	1.37178
313.335	1.66556
311.194	1.74689
309.053	1.84667
306.911	1.96222
304.768	1.74089
302.625	2.02756
300.482	1.942
298.338	2.09556
296.194	2.15422
294.049	2.42844
291.903	2.28822
289.757	2.32133
287.611	2.502
285.464	2.32911
283.316	1.91822
281.169	1.97956
279.02	2.02778
276.871	1.93711
274.722	2.06911
272.572	1.93289
270.421	1.67378
268.271	1.27711
266.119	1.02711
263.967	0.591778
261.815	0.387111
259.662	0.0204444
257.508	-0.130444
255.355	-0.322222
253.2	-0.384
251.045	-0.394889
248.89	-0.439111
246.734	-0.441111
244.578	-0.506444
242.421	-0.553778
240.263	-0.488444
238.105	-0.445111
235.947	-0.473556
233.788	-0.479333
231.629	-0.499111
229.469	-0.536444
227.308	-0.532
225.147	-0.472667
222.986	-0.506222
220.824	-0.519778
218.662	-0.468
216.499	-0.525333
214.335	-0.555333
212.171	-0.619556
210.007	-0.486667
207.842	-0.549556
206.11	-0.471111

File: S_50mA.txt
768.549	1.54424
766.512	1.3314
764.475	0.873111
762.437	0.937493
760.398	1.21427
758.359	1.43647
756.32	0.894772
754.28	1.01775
752.24	0.924093
750.199	1.24479
748.158	1.21088
746.116	0.823947
744.074	1.4784
742.032	0.650474
739.989	1.30877
737.945	1.2115
735.901	0.799103
733.857	1.06436
731.812	1.09042
729.766	1.15286
727.721	1.15603
725.674	1.13355
723.628	0.920264
721.58	0.927324
719.533	0.962758
717.485	1.17205
715.436	1.15586
713.387	1.03419
711.337	1.11048
709.287	1.08641
707.237	0.893292
705.186	0.880368
703.135	0.939972
701.083	0.879648
699.031	1.11825
696.978	0.782293
694.925	0.984489
692.871	0.969703
690.817	1.20877
688.762	1.01266
686.707	1.15167
684.651	0.942001
682.595	1.1368
680.539	1.25406
678.482	1.02719
676.425	0.608517
674.367	1.12111
672.308	0.89956
670.25	1.14275
668.19	0.902584
666.131	0.661763
664.07	0.848207
662.01	1.01952
659.948	1.17002
657.887	0.657964
655.825	0.753524
653.762	0.926359
651.699	0.99525
649.636	1.20467
647.572	1.08058
645.507	0.853149
643.442	0.867511
641.377	0.806729
639.311	1.18567
637.245	1.38655
635.178	1.20933
633.111	1.12169
631.043	1.26146
628.975	1.12544
626.906	1.03081
624.837	1.00321
622.768	0.653843
620.698	0.820882
618.627	1.17312
616.556	1.10338
614.485	0.73615
612.413	0.872881
610.34	0.873101
608.267	0.840493
606.194	0.786163
604.12	1.1568
602.046	0.881357
599.971	1.1066
597.896	0.861311
595.82	0.898247
593.744	0.878447
591.667	0.99367
589.59	0.679061
587.513	0.842386
585.434	1.04106
583.356	0.632334
581.277	0.659043
579.197	0.650241
577.117	0.966218
575.037	0.319188
572.956	0.685373
570.875	0.653034
568.793	0.881474
566.71	0.613687
564.628	0.517908
562.544	0.689954
560.461	0.615851
558.376	0.519344
556.292	0.669634
554.206	0.573009
552.121	0.754974
550.035	0.818701
547.948	0.473738
545.861	0.670951
543.773	0.734457
541.685	0.412266
539.597	0.53969
537.508	0.569883
535.418	0.975976
533.328	0.966774
531.238	0.996591
529.147	1.09387
527.056	0.857304
524.964	1.27146
522.871	1.43191
520.778	1.72753
518.685	1.71973
516.591	2.46392
514.497	3.24639
512.402	4.24527
510.307	5.90356
508.211	8.69555
506.115	11.5834
504.019	13.6259
501.922	14.4399
499.824	12.703
497.726	9.94501
495.627	7.22601
493.528	5.7731
491.429	4.36278
489.329	3.69468
487.228	2.61476
485.127	2.30937
483.026	1.80566
480.924	1.78396
478.821	1.75145
476.718	1.54486
474.615	1.25037
472.511	0.975956
470.407	1.14547
468.302	1.05095
466.197	0.578913
464.091	0.821196
461.985	0.746928
459.878	0.65433
457.771	0.668724
455.663	0.923658
453.555	0.514454
451.446	0.353386
449.337	0.634216
447.227	0.422384
445.117	0.56109
443.006	0.261476
440.895	0.500376
438.784	0.242908
436.671	0.299149
434.559	0.418517
432.446	0.297312
430.332	0.332171
428.218	0.446209
426.104	0.573546
423.989	1.00663
421.873	0.506897
419.757	0.848493
417.641	0.678879
415.524	0.361667
413.407	0.584317
411.289	0.628731
409.17	0.424883
407.051	0.607339
404.932	0.510113
402.812	0.397654
400.692	0.734338
398.571	0.557682
396.45	0.633236
394.328	0.527834
392.205	0.410158
390.083	0.419094
387.959	0.420278
385.836	0.618091
383.711	0.613022
381.587	0.542131
379.461	0.482529
377.336	0.605204
375.209	0.444947
373.083	0.355276
370.955	0.638106
368.828	0.367476
366.7	0.352789
364.571	0.573241
362.442	0.611568
360.312	0.755217
358.182	0.621248
356.051	0.579438
353.92	0.671974
351.789	0.740446
349.657	0.317699
347.524	0.330382
345.391	0.697577
343.257	0.463913
341.123	0.611782
338.989	0.650289
336.854	0.473291
334.718	0.668139
332.582	0.578118
330.445	0.331064
328.308	0.467613
326.171	0.5468
324.033	0.484843
321.894	0.502123
319.755	0.673034
317.616	0.32303
315.476	0.687439
313.335	0.81657
311.194	0.807183
309.053	0.953588
306.911	0.782508
304.768	0.954322
302.625	1.03032
300.482	1.04337
298.338	0.99187
296.194	1.23089
294.049	1.24792
291.903	1.293
289.757	1.03998
287.611	0.938574
285.464	0.831551
283.316	0.894981
281.169	0.283967
279.02	0.618612
276.871	0.459722
274.722	0.682796
272.572	0.524726
270.421	-0.111538
268.271	-0.460367
266.119	-1.00994
263.967	-1.57094
261.815	-2.20459
259.662	-2.48899
257.508	-2.91704
255.355	-3.06463
253.2	-3.22006
251.045	-3.41153
248.89	-3.42964
246.734	-3.54984
244.578	-3.63017
242.421	-3.53821
240.263	-3.60034
238.105	-3.58046
235.947	-3.64065
233.788	-3.63364
231.629	-3.63299
229.469	-3.60055
227.308	-3.60495
225.147	-3.66397
222.986	-3.64602
220.824	-3.58007
218.662	-3.63298
216.499	-3.60514
214.335	-3.59476
212.171	-3.65796
210.007	-3.63099
207.842	-3.66172
206.11	-3.68459