Folder: flash_scratch/tomke/20240809_Si_on_TiO2/20240809/raw_data (part 2)

File: Si_50A_30sec_4acc_60mW_695nm.txt
Wavelength(nm), Raman shift(cm^-1), Intensity(counts)
702.12,661.884,359477
701.929,658.005,361190
701.738,654.125,359415
701.547,650.242,360528
701.355,646.357,360723
701.164,642.47,360525
700.973,638.582,360160
700.782,634.69,360687
700.591,630.797,359646
700.4,626.902,358337
700.209,623.004,359096
700.017,619.105,358724
699.826,615.203,358363
699.635,611.299,356986
699.444,607.393,356224
699.253,603.485,357117
699.062,599.575,356207
698.871,595.662,355550
698.679,591.748,355509
698.488,587.831,355987
698.297,583.912,356510
698.106,579.991,354091
697.915,576.068,356260
697.724,572.143,354995
697.533,568.216,353559
697.341,564.286,355079
697.15,560.354,353158
696.959,556.42,354386
696.768,552.484,352907
696.577,548.546,353828
696.386,544.606,352937
696.195,540.663,351305
696.003,536.718,352148
695.812,532.772,350518
695.621,528.823,351362
695.43,524.871,350996
695.239,520.918,350491
695.048,516.962,349922
694.857,513.005,349795
694.666,509.045,350654
694.474,505.083,350541
694.283,501.118,348700
694.092,497.152,348289
693.901,493.183,348352
693.71,489.212,348651
693.519,485.239,347669
693.328,481.264,347315
693.136,477.287,347310
692.945,473.307,347177
692.754,469.326,346283
692.563,465.342,345245
692.372,461.355,346454
692.181,457.367,345981
691.99,453.376,344668
691.798,449.384,344583
691.607,445.389,343673
691.416,441.391,344064
691.225,437.392,345371
691.034,433.39,344262
690.843,429.386,342982
690.652,425.38,342324
690.46,421.372,342004
690.269,417.362,343310
690.078,413.349,341945
689.887,409.334,341185
689.696,405.317,342973
689.505,401.297,340861
689.314,397.276,341125
689.122,393.252,341032
688.931,389.226,340222
688.74,385.197,339530
688.549,381.167,337621
688.358,377.134,336029
688.167,373.099,333302
687.976,369.062,331366
702.014,659.729,354510
701.823,655.85,354748
701.632,651.968,353647
701.44,648.084,355030
701.249,644.198,354733
701.058,640.31,354750
700.867,636.42,354116
700.676,632.528,353510
700.485,628.633,354029
700.294,624.737,352826
700.102,620.838,352731
699.911,616.937,351876
699.72,613.035,352625
699.529,609.129,351613
699.338,605.222,350438
699.147,601.313,351235
698.956,597.402,349934
698.764,593.488,350608
698.573,589.572,349246
698.382,585.654,350089
698.191,581.734,349613
698,577.812,349900
697.809,573.888,348913
697.618,569.961,349429
697.426,566.033,348230
697.235,562.102,348592
697.044,558.169,347736
696.853,554.234,348676
696.662,550.297,347345
696.471,546.357,346292
696.28,542.416,346875
696.088,538.472,345464
695.897,534.526,346474
695.706,530.578,346881
695.515,526.628,345083
695.324,522.675,344737
695.133,518.721,345570
694.942,514.764,344033
694.75,510.805,344824
694.559,506.844,344583
694.368,502.881,344661
694.177,498.915,343386
693.986,494.947,342789
693.795,490.978,343196
693.604,487.006,342920
693.412,483.031,342835
693.221,479.055,340954
693.03,475.076,342229
692.839,471.095,341413
692.648,467.112,341246
692.457,463.127,341422
692.266,459.14,340396
692.074,455.15,339476
691.883,451.158,340437
691.692,447.164,339631
691.501,443.168,337799
691.31,439.17,338297
691.119,435.169,338391
690.928,431.166,338120
690.736,427.161,338853
690.545,423.154,337725
690.354,419.144,337645
690.163,415.133,336621
689.972,411.119,336407
689.781,407.102,334676
689.59,403.084,335660
689.398,399.063,334557
689.207,395.041,336093
689.016,391.015,334915
688.825,386.988,334351
688.634,382.958,332910
688.443,378.927,331445
688.252,374.893,328931
688.06,370.856,326381
702.099,661.453,500344
701.908,657.574,500033
701.717,653.693,501179
701.525,649.811,501154
701.334,645.926,499607
701.143,642.038,498954
700.952,638.149,498751
700.761,634.258,499213
700.57,630.364,498520
700.379,626.469,498561
700.187,622.571,496435
699.996,618.671,498129
699.805,614.769,496546
699.614,610.865,496794
699.423,606.959,495791
699.232,603.051,495104
699.041,599.14,496039
698.849,595.228,494870
698.658,591.313,494103
698.467,587.396,495130
698.276,583.477,496252
698.085,579.556,490676
697.894,575.632,494890
697.703,571.707,494025
697.511,567.779,491574
697.32,563.849,491756
697.129,559.917,494056
696.938,555.983,491979
696.747,552.047,489728
696.556,548.108,490795
696.365,544.168,490071
696.173,540.225,488106
695.982,536.28,490501
695.791,532.333,487922
695.6,528.384,488326
695.409,524.432,487613
695.218,520.479,488130
695.027,516.523,487140
694.835,512.565,485573
694.644,508.605,486991
694.453,504.642,487139
694.262,500.678,485208
694.071,496.711,486356
693.88,492.742,485695
693.689,488.771,484800
693.497,484.798,485606
693.306,480.822,485151
693.115,476.845,483925
692.924,472.865,482762
692.733,468.883,482206
692.542,464.899,483216
692.351,460.912,482714
692.159,456.924,481281
691.968,452.933,481889
691.777,448.94,480618
691.586,444.945,479022
691.395,440.947,480550
691.204,436.947,479408
691.013,432.946,480118
690.821,428.941,477077
690.63,424.935,478714
690.439,420.927,477021
690.248,416.916,476565
690.057,412.903,476132
689.866,408.888,476169
689.675,404.87,475331
689.483,400.851,475697
689.292,396.829,474540
689.101,392.805,473388
688.91,388.778,474772
688.719,384.75,472199
688.528,380.719,472039
688.337,376.686,466403
688.145,372.651,463128
687.954,368.613,459078
701.993,659.298,459379
701.801,655.418,461845
701.61,651.537,458408
701.419,647.652,461016
701.228,643.766,461086
701.037,639.878,459849
700.846,635.988,459437
700.655,632.095,460485
700.463,628.201,457884
700.272,624.304,458282
700.081,620.405,458743
699.89,616.504,457815
699.699,612.601,458649
699.508,608.695,457367
699.317,604.788,453456
699.125,600.878,455752
698.934,596.967,456014
698.743,593.053,456037
698.552,589.137,454816
698.361,585.219,453691
698.17,581.299,454265
697.979,577.376,453080
697.787,573.452,454932
697.596,569.525,453268
697.405,565.596,453764
697.214,561.665,453152
697.023,557.732,450970
696.832,553.797,451549
696.641,549.859,451238
696.449,545.919,450867
696.258,541.978,450129
696.067,538.034,450570
695.876,534.087,448725
695.685,530.139,450965
695.494,526.189,449093
695.303,522.236,449002
695.111,518.281,449310
694.92,514.324,447668
694.729,510.365,448141
694.538,506.404,447134
694.347,502.44,447658
694.156,498.474,447976
693.965,494.506,447029
693.774,490.536,446201
693.582,486.564,445950
693.391,482.59,447235
693.2,478.613,446124
693.009,474.634,444667
692.818,470.653,445197
692.627,466.67,443196
692.436,462.684,443965
692.244,458.697,442824
692.053,454.707,441799
691.862,450.715,441720
691.671,446.72,441654
691.48,442.724,442476
691.289,438.725,441789
691.098,434.724,440700
690.906,430.721,441882
690.715,426.716,439865
690.524,422.708,438955
690.333,418.699,439273
690.142,414.687,440857
689.951,410.672,438160
689.76,406.656,437009
689.568,402.637,438363
689.377,398.617,435771
689.186,394.593,435613
688.995,390.568,435348
688.804,386.54,434681
688.613,382.511,434553
688.422,378.479,431985
688.23,374.444,427681
688.039,370.408,424264
687.901,367.491,421224

File: Si_onTiO2_0mA_30mW_30sec_1acc_517nm.txt
Wavelength(nm), Raman shift(cm^-1), Intensity(counts)
525.312,-196.464,59770
525.25,-198.711,60121
525.188,-200.958,59968
525.126,-203.205,59945
525.064,-205.453,60047
525.002,-207.702,60009
524.94,-209.951,60023
524.878,-212.2,60017
524.816,-214.45,60041
524.754,-216.701,59963
524.692,-218.952,59989
524.63,-221.204,59926
524.568,-223.456,59912
524.506,-225.709,60004
524.444,-227.962,60028
524.382,-230.216,59966
524.32,-232.471,59922
524.258,-234.726,60015
524.196,-236.981,59982
524.134,-239.237,59954
524.072,-241.494,59966
524.01,-243.751,60020
523.948,-246.008,59976
523.886,-248.266,59949
523.824,-250.525,59985
523.762,-252.784,60038
523.7,-255.044,60042
523.638,-257.304,60012
523.576,-259.565,60070
523.514,-261.827,59991
523.452,-264.088,60013
523.39,-266.351,60107
523.329,-268.614,60065
523.267,-270.877,60011
523.205,-273.141,60069
523.143,-275.406,60046
523.081,-277.671,60153
523.019,-279.937,60112
522.957,-282.203,60201
522.895,-284.469,60156
522.833,-286.737,60312
522.771,-289.005,60145
522.709,-291.273,60276
522.647,-293.542,60231
522.585,-295.811,60274
522.523,-298.081,60250
522.461,-300.352,60361
522.399,-302.623,60290
522.337,-304.894,60267
522.275,-307.166,60297
522.213,-309.439,60372
522.151,-311.712,60247
522.089,-313.986,60253
522.027,-316.26,60197
521.965,-318.535,60288
521.903,-320.81,60234
521.841,-323.086,60142
521.779,-325.362,60187
521.717,-327.639,60236
521.655,-329.917,60149
521.593,-332.195,60163
521.531,-334.473,60206
521.469,-336.753,60198
521.407,-339.032,60200
521.345,-341.312,60130
521.283,-343.593,60124
521.221,-345.874,60098
521.159,-348.156,60157
521.097,-350.439,60092
521.035,-352.722,60072
520.973,-355.005,60148
520.911,-357.289,60101
520.849,-359.574,60155
520.787,-361.859,60184
520.725,-364.144,60197
520.663,-366.43,60081
520.601,-368.717,60050
520.539,-371.004,60122
520.477,-373.292,60095
520.415,-375.581,60092
520.353,-377.87,60105
520.291,-380.159,60204
520.229,-382.449,60133
520.167,-384.74,60123
520.105,-387.031,60065
520.043,-389.322,60029
519.981,-391.614,60057
519.919,-393.907,60051
519.857,-396.2,60096
519.795,-398.494,60046
519.733,-400.789,60144
519.671,-403.084,60062
519.61,-405.379,60035
519.548,-407.675,60053
519.486,-409.972,60192
519.424,-412.269,60042
519.362,-414.566,60090
519.3,-416.865,60078
519.238,-419.163,60059
519.176,-421.463,60070
519.114,-423.762,60038
519.052,-426.063,60115
518.99,-428.364,60080
518.928,-430.665,60102
518.866,-432.967,60059
518.804,-435.27,60137
518.742,-437.573,60088
518.68,-439.877,60035
518.618,-442.181,59958
518.556,-444.486,60090
518.494,-446.791,60029
518.432,-449.097,60006
518.37,-451.404,60052
518.308,-453.711,60066
518.246,-456.018,59947
518.184,-458.326,60023
518.122,-460.635,60025
518.06,-462.944,59994
517.998,-465.254,60045
517.936,-467.564,60095
517.874,-469.875,59995
517.812,-472.186,59959
517.75,-474.498,59943
517.688,-476.811,60016
517.626,-479.124,60081
517.564,-481.438,60020
517.502,-483.752,60108
517.44,-486.067,60148
517.378,-488.382,60087
517.316,-490.698,60064
517.254,-493.014,60073
517.192,-495.331,60024
517.13,-497.649,60103
517.068,-499.967,60057
517.006,-502.285,60140
516.944,-504.605,60114
516.882,-506.924,60136
516.82,-509.245,60245
516.758,-511.565,60426
516.696,-513.887,60874
516.634,-516.209,62188
516.572,-518.531,66394
516.51,-520.854,68005
516.448,-523.178,65529
516.386,-525.502,62620
516.324,-527.827,61165
516.262,-530.152,60505
516.2,-532.478,60251
516.138,-534.805,60209
516.076,-537.132,60154
516.014,-539.459,60169
515.952,-541.787,60159
515.89,-544.116,60102
515.829,-546.445,60041
515.767,-548.775,60100
515.705,-551.105,60031
515.643,-553.436,59978
515.581,-555.768,60011
515.519,-558.1,60060
515.457,-560.432,60107
515.395,-562.766,60029
515.333,-565.099,60001
515.271,-567.434,59966
515.209,-569.768,60007
515.147,-572.104,59975
515.085,-574.44,60023
515.023,-576.776,60005
514.961,-579.113,60021
514.899,-581.451,60045
514.837,-583.789,60069
514.775,-586.128,60046
514.713,-588.467,60013
514.651,-590.807,60003
514.589,-593.148,60019
514.527,-595.489,60070
514.465,-597.83,60019
514.403,-600.173,60048
514.341,-602.515,59944
514.279,-604.859,59990
514.217,-607.202,60016
514.155,-609.547,60028
514.093,-611.892,59950
514.031,-614.237,60012
513.969,-616.584,59993
513.907,-618.93,60102
513.845,-621.277,60062
513.783,-623.625,60127
513.721,-625.974,60047
513.659,-628.323,59955
513.597,-630.672,59993
513.535,-633.022,59979
513.473,-635.373,59963
513.411,-637.724,60051
513.349,-640.076,59953
513.287,-642.428,59956
513.225,-644.781,60025
513.163,-647.135,60019
513.101,-649.489,60038
513.039,-651.843,60005
512.977,-654.199,59973
512.915,-656.554,60062
512.853,-658.911,60083
512.791,-661.268,60018
512.729,-663.625,59975
512.667,-665.983,59979
512.605,-668.342,60044
512.543,-670.701,60072
512.481,-673.061,59946
512.419,-675.421,60058
512.357,-677.782,59997
512.295,-680.143,59983
512.233,-682.505,60069
512.171,-684.868,60047
512.11,-687.231,60045
512.048,-689.595,60021
511.986,-691.959,60069
511.924,-694.324,60005
511.862,-696.69,59922
511.8,-699.056,59981
511.738,-701.422,59954
511.676,-703.789,59983
511.614,-706.157,59989
511.552,-708.526,60024
511.49,-710.894,59973
511.428,-713.264,60003
511.366,-715.634,59996
511.304,-718.005,59964
511.242,-720.376,59972
511.18,-722.748,59971
511.118,-725.12,59990
511.056,-727.493,59978
510.994,-729.867,60023
510.932,-732.241,59946
510.87,-734.615,60069
510.808,-736.991,59991
510.746,-739.366,60108
510.684,-741.743,60038
510.622,-744.12,60115
510.56,-746.497,60049
510.498,-748.875,59968
510.436,-751.254,59991
510.374,-753.633,59981
510.312,-756.013,60018
510.25,-758.394,60106
510.188,-760.775,59987
510.126,-763.156,60059
510.064,-765.538,60040
510.002,-767.921,60022
509.94,-770.305,59995
509.878,-772.688,60023
509.816,-775.073,60049
509.754,-777.458,60030
509.692,-779.844,60013
509.63,-782.23,60002
509.568,-784.617,59982
509.506,-787.004,59997
509.444,-789.392,60058
509.382,-791.781,60010
509.32,-794.17,59980
509.258,-796.559,59975
509.196,-798.95,60087
509.134,-801.341,60035
509.072,-803.732,60017
509.01,-806.124,59960
508.948,-808.517,59936
508.886,-810.91,59953
508.824,-813.304,59987
508.762,-815.698,59936
508.713,-817.614,59994

File: Si_onTiO2_0mA_30mW_30sec_1acc_545nm.txt
Wavelength(nm), Raman shift(cm^-1), Intensity(counts)
553.312,766.856,59884
553.25,764.831,60230
553.188,762.806,60152
553.126,760.78,60048
553.064,758.754,60118
553.002,756.727,60193
552.94,754.7,60111
552.878,752.673,60168
552.816,750.645,60177
552.754,748.616,60098
552.692,746.587,60163
552.63,744.558,60171
552.568,742.528,60132
552.506,740.498,60126
552.444,738.467,60247
552.382,736.436,60087
552.32,734.405,60127
552.258,732.372,60149
552.196,730.34,60177
552.134,728.307,60058
552.072,726.273,60128
552.01,724.24,60182
551.948,722.205,60161
551.886,720.17,60156
551.824,718.135,60139
551.762,716.099,60141
551.7,714.063,60107
551.638,712.026,60060
551.576,709.989,60078
551.514,707.952,60057
551.452,705.914,60215
551.39,703.875,60119
551.329,701.836,60133
551.267,699.797,60137
551.205,697.757,60183
551.143,695.717,60207
551.081,693.676,60246
551.019,691.635,60231
550.957,689.593,60178
550.895,687.551,60194
550.833,685.508,60184
550.771,683.465,60246
550.709,681.422,60241
550.647,679.378,60271
550.585,677.333,60263
550.523,675.288,60230
550.461,673.243,60337
550.399,671.197,60212
550.337,669.151,60288
550.275,667.104,60302
550.213,665.057,60254
550.151,663.009,60277
550.089,660.961,60252
550.027,658.912,60327
549.965,656.863,60299
549.903,654.814,60358
549.841,652.764,60220
549.779,650.713,60298
549.717,648.662,60276
549.655,646.611,60321
549.593,644.559,60260
549.531,642.507,60304
549.469,640.454,60380
549.407,638.401,60388
549.345,636.347,60401
549.283,634.293,60355
549.221,632.238,60410
549.159,630.183,60356
549.097,628.128,60403
549.035,626.072,60497
548.973,624.015,60433
548.911,621.958,60409
548.849,619.901,60489
548.787,617.843,60401
548.725,615.784,60409
548.663,613.726,60289
548.601,611.666,60283
548.539,609.607,60353
548.477,607.546,60316
548.415,605.486,60378
548.353,603.425,60104
548.291,601.363,60180
548.229,599.301,60288
548.167,597.238,60237
548.105,595.175,60224
548.043,593.112,60269
547.981,591.048,60225
547.919,588.984,60218
547.857,586.919,60241
547.795,584.853,60213
547.733,582.788,60203
547.671,580.721,60258
547.61,578.655,60242
547.548,576.587,60165
547.486,574.52,60230
547.424,572.452,60222
547.362,570.383,60236
547.3,568.314,60218
547.238,566.244,60255
547.176,564.174,60278
547.114,562.104,60260
547.052,560.033,60253
546.99,557.962,60307
546.928,555.89,60380
546.866,553.817,60360
546.804,551.744,60412
546.742,549.671,60497
546.68,547.597,60488
546.618,545.523,60574
546.556,543.448,60580
546.494,541.373,60799
546.432,539.298,60915
546.37,537.222,61082
546.308,535.145,61300
546.246,533.068,61724
546.184,530.99,62216
546.122,528.912,63463
546.06,526.834,66060
545.998,524.755,74537
545.936,522.675,102248
545.874,520.596,124156
545.812,518.515,114485
545.75,516.434,89537
545.688,514.353,74256
545.626,512.271,66427
545.564,510.189,63540
545.502,508.106,62368
545.44,506.023,61621
545.378,503.939,61291
545.316,501.855,61033
545.254,499.771,60732
545.192,497.685,60840
545.13,495.6,60664
545.068,493.514,60594
545.006,491.427,60584
544.944,489.34,60631
544.882,487.253,60443
544.82,485.165,60415
544.758,483.076,60366
544.696,480.988,60437
544.634,478.898,60162
544.572,476.808,60379
544.51,474.718,60292
544.448,472.627,60288
544.386,470.536,60173
544.324,468.444,60261
544.262,466.352,60320
544.2,464.259,60411
544.138,462.166,60193
544.076,460.072,60184
544.014,457.978,60225
543.952,455.884,60234
543.89,453.789,60261
543.829,451.693,60214
543.767,449.597,60302
543.705,447.5,60256
543.643,445.403,60363
543.581,443.306,60335
543.519,441.208,60364
543.457,439.11,60375
543.395,437.011,60393
543.333,434.911,60437
543.271,432.811,60427
543.209,430.711,60441
543.147,428.61,60436
543.085,426.509,60439
543.023,424.407,60335
542.961,422.305,60422
542.899,420.202,60357
542.837,418.099,60420
542.775,415.995,60406
542.713,413.891,60413
542.651,411.786,60497
542.589,409.681,60363
542.527,407.575,60405
542.465,405.469,60382
542.403,403.363,60440
542.341,401.256,60391
542.279,399.148,60386
542.217,397.04,60500
542.155,394.931,60543
542.093,392.822,60511
542.031,390.713,60407
541.969,388.603,60447
541.907,386.492,60466
541.845,384.382,60435
541.783,382.27,60411
541.721,380.158,60487
541.659,378.046,60496
541.597,375.933,60420
541.535,373.82,60537
541.473,371.706,60445
541.411,369.591,60480
541.349,367.477,60493
541.287,365.361,60439
541.225,363.246,60508
541.163,361.129,60565
541.101,359.013,60540
541.039,356.895,60454
540.977,354.778,60545
540.915,352.659,60516
540.853,350.541,60542
540.791,348.422,60568
540.729,346.302,60541
540.667,344.182,60530
540.605,342.061,60667
540.543,339.94,60578
540.481,337.818,60628
540.419,335.696,60683
540.357,333.574,60641
540.295,331.451,60599
540.233,329.327,60665
540.171,327.203,60743
540.11,325.079,60778
540.048,322.953,60767
539.986,320.828,69063
539.924,318.702,63260
539.862,316.576,60703
539.8,314.449,60795
539.738,312.321,60901
539.676,310.193,60875
539.614,308.065,61027
539.552,305.936,61115
539.49,303.806,61213
539.428,301.676,61265
539.366,299.546,61241
539.304,297.415,61130
539.242,295.284,60902
539.18,293.152,61015
539.118,291.02,60854
539.056,288.887,60850
538.994,286.753,60874
538.932,284.62,60743
538.87,282.485,60696
538.808,280.351,60774
538.746,278.215,60725
538.684,276.079,60774
538.622,273.943,60855
538.56,271.806,60877
538.498,269.669,60881
538.436,267.531,60738
538.374,265.393,60655
538.312,263.254,60488
538.25,261.115,60359
538.188,258.975,60351
538.126,256.835,60138
538.064,254.694,60144
538.002,252.553,60103
537.94,250.412,60047
537.878,248.269,60033
537.816,246.127,60110
537.754,243.984,59978
537.692,241.84,59996
537.63,239.696,59995
537.568,237.551,59981
537.506,235.406,59999
537.444,233.26,59951
537.382,231.114,59990
537.32,228.967,60037
537.258,226.82,59932
537.196,224.673,60071
537.134,222.525,60049
537.072,220.376,60015
537.01,218.227,60049
536.948,216.077,60067
536.886,213.927,59994
536.824,211.776,59895
536.762,209.625,60044
536.713,207.904,60033

File: Si_onTiO2_0mA_30mW_30sec_3acc_517nm_bg.txt
Wavelength(nm), Raman shift(cm^-1), Intensity(counts)
525.364,-194.586,59691
525.189,-200.915,59994
525.015,-207.249,60019
524.84,-213.586,59960
524.665,-219.928,60066
524.491,-226.275,59984
524.316,-232.625,59981
524.141,-238.98,60011
523.967,-245.339,59975
523.792,-251.702,59964
523.617,-258.069,60011
523.443,-264.441,60044
523.268,-270.817,60031
523.094,-277.197,60055
522.919,-283.581,59988
522.744,-289.97,60078
522.57,-296.363,59948
522.395,-302.76,60033
522.22,-309.161,59968
522.046,-315.567,59994
521.871,-321.977,59987
521.696,-328.392,59978
521.522,-334.81,59977
521.347,-341.233,59927
521.173,-347.66,59999
520.998,-354.092,59885
520.823,-360.528,60013
520.649,-366.968,59999
520.474,-373.413,59971
520.299,-379.861,59981
520.125,-386.315,60032
519.95,-392.772,60005
519.775,-399.234,59973
519.601,-405.7,59949
519.426,-412.171,59991
519.252,-418.646,60013
519.077,-425.125,60036
518.902,-431.609,60013
518.728,-438.096,60037
518.553,-444.589,59973
518.378,-451.086,60002
518.204,-457.587,60051
518.029,-464.092,60008
517.854,-470.602,60092
517.68,-477.116,59991
517.505,-483.635,59933
517.331,-490.158,60042
517.156,-496.685,59998
516.981,-503.217,60083
516.807,-509.754,59987
516.632,-516.294,59935
516.457,-522.839,59931
516.283,-529.389,60029
516.108,-535.943,59994
515.933,-542.501,59997
515.759,-549.064,60022
515.584,-555.632,60036
515.41,-562.203,59912
515.235,-568.78,59972
515.06,-575.36,59946
514.886,-581.945,59991
514.711,-588.535,60005
514.536,-595.129,60014
514.362,-601.728,60025
514.187,-608.331,59970
514.012,-614.938,59999
513.838,-621.55,60005
513.663,-628.167,60013
513.489,-634.788,59965
513.314,-641.413,60037
513.139,-648.043,59940
512.965,-654.678,59964
512.79,-661.317,60005
512.615,-667.961,60021
512.441,-674.609,60005
512.266,-681.261,60032
512.091,-687.919,60037
511.917,-694.58,59928
511.742,-701.247,59976
511.568,-707.917,60022
511.393,-714.593,60041
511.218,-721.273,59979
511.044,-727.957,59973
510.869,-734.646,60060
510.694,-741.34,60067
510.52,-748.038,60042
510.345,-754.741,59952
510.17,-761.448,59978
509.996,-768.161,60043
509.821,-774.877,60004
509.647,-781.598,60044
509.472,-788.324,59937
509.297,-795.055,60023
509.123,-801.79,60000
508.948,-808.529,59952
508.773,-815.274,60001
525.314,-196.394,60103
525.139,-202.724,59958
524.965,-209.059,59969
524.79,-215.398,60009
524.615,-221.741,60002
524.441,-228.088,59989
524.266,-234.44,59954
524.091,-240.796,59969
523.917,-247.156,59973
523.742,-253.52,60029
523.568,-259.889,59993
523.393,-266.262,60019
523.218,-272.639,59897
523.044,-279.02,59983
522.869,-285.406,60008
522.694,-291.796,59963
522.52,-298.19,59974
522.345,-304.589,59960
522.17,-310.991,59972
521.996,-317.398,59941
521.821,-323.81,59905
521.647,-330.225,59958
521.472,-336.645,59948
521.297,-343.069,59991
521.123,-349.498,60008
520.948,-355.93,59974
520.773,-362.368,59961
520.599,-368.809,60028
520.424,-375.255,59893
520.249,-381.705,59988
520.075,-388.159,59904
519.9,-394.618,59905
519.726,-401.081,59994
519.551,-407.548,60005
519.376,-414.02,59959
519.202,-420.496,60036
519.027,-426.977,59988
518.852,-433.462,60019
518.678,-439.951,59934
518.503,-446.445,59955
518.328,-452.943,59966
518.154,-459.445,59996
517.979,-465.952,59993
517.805,-472.463,59967
517.63,-478.978,59939
517.455,-485.498,59906
517.281,-492.023,59989
517.106,-498.551,59953
516.931,-505.084,59960
516.757,-511.622,60012
516.582,-518.164,60014
516.407,-524.71,59953
516.233,-531.261,59999
516.058,-537.816,60029
515.884,-544.376,60030
515.709,-550.94,59935
515.534,-557.509,59986
515.36,-564.082,60047
515.185,-570.659,59977
515.01,-577.241,59892
514.836,-583.828,59941
514.661,-590.419,59933
514.486,-597.014,60009
514.312,-603.614,59985
514.137,-610.218,60027
513.963,-616.827,60011
513.788,-623.44,60037
513.613,-630.058,59922
513.439,-636.68,59974
513.264,-643.307,60020
513.089,-649.939,60098
512.915,-656.574,60024
512.74,-663.215,60011
512.565,-669.86,59974
512.391,-676.509,60114
512.216,-683.163,59966
512.042,-689.821,60010
511.867,-696.485,59986
511.692,-703.152,59929
511.518,-709.824,60029
511.343,-716.501,60040
511.168,-723.182,60054
510.994,-729.868,60024
510.819,-736.558,60097
510.644,-743.253,60051
510.47,-749.953,59955
510.295,-756.657,59897
510.121,-763.366,59990
509.946,-770.079,59884
509.771,-776.797,59979
509.597,-783.52,59921
509.422,-790.247,60007
509.247,-796.978,59994
509.073,-803.715,60030
508.898,-810.456,59913
508.723,-817.201,60014
525.264,-198.202,60058
525.089,-204.534,60058
524.915,-210.87,59955
524.74,-217.21,59893
524.565,-223.554,60048
524.391,-229.903,59975
524.216,-236.256,59996
524.042,-242.613,59985
523.867,-248.974,59988
523.692,-255.34,60027
523.518,-261.709,60017
523.343,-268.084,59919
523.168,-274.462,60026
522.994,-280.844,60051
522.819,-287.231,59930
522.644,-293.622,59991
522.47,-300.018,59946
522.295,-306.417,60092
522.121,-312.821,60003
521.946,-319.23,59934
521.771,-325.642,60026
521.597,-332.059,59957
521.422,-338.48,59960
521.247,-344.905,59974
521.073,-351.335,59966
520.898,-357.769,59971
520.723,-364.208,59996
520.549,-370.65,59950
520.374,-377.097,59980
520.2,-383.548,60071
520.025,-390.004,60022
519.85,-396.464,59974
519.676,-402.928,60006
519.501,-409.397,60011
519.326,-415.87,59927
519.152,-422.348,59964
518.977,-428.829,60026
518.802,-435.315,59971
518.628,-441.806,60003
518.453,-448.301,59979
518.279,-454.8,60053
518.104,-461.304,60015
517.929,-467.812,59955
517.755,-474.324,60009
517.58,-480.841,59960
517.405,-487.362,59989
517.231,-493.887,59972
517.056,-500.417,60003
516.881,-506.952,60016
516.707,-513.491,59978
516.532,-520.034,60055
516.358,-526.582,60057
516.183,-533.134,59951
516.008,-539.69,59982
515.834,-546.251,60051
515.659,-552.817,60041
515.484,-559.386,59902
515.31,-565.961,59985
515.135,-572.539,59938
514.96,-579.123,59949
514.786,-585.71,60049
514.611,-592.303,60024
514.437,-598.899,59983
514.262,-605.5,60020
514.087,-612.106,60014
513.913,-618.716,60048
513.738,-625.331,59982
513.563,-631.95,60055
513.389,-638.573,59961
513.214,-645.201,60067
513.04,-651.834,59963
512.865,-658.471,60023
512.69,-665.113,59967
512.516,-671.759,59928
512.341,-678.41,59990
512.166,-685.065,59998
511.992,-691.725,59993
511.817,-698.389,60035
511.642,-705.058,60048
511.468,-711.731,60052
511.293,-718.409,59976
511.119,-725.092,60054
510.944,-731.779,60024
510.769,-738.471,59920
510.595,-745.167,59985
510.42,-751.868,60019
510.245,-758.573,59997
510.071,-765.283,59998
509.896,-771.998,60079
509.721,-778.717,59994
509.547,-785.441,59943
509.372,-792.17,60022
509.198,-798.903,59917
509.023,-805.64,60028
508.848,-812.383,59933
508.674,-819.13,60048
508.661,-819.612,59966