Folder: flash_scratch/tomke/20240809_Si_on_TiO2/20240809/raw_data (part 8)

File: Si_onTiO2_80mA_30mW_30sec_5acc_545nm_bg.txt
Wavelength(nm), Raman shift(cm^-1), Intensity(counts)
553.364,768.549,158993
553.077,759.175,159531
552.79,749.791,158478
552.503,740.397,158205
552.216,730.994,157473
551.929,721.58,157573
551.642,712.157,157391
551.356,702.724,157099
551.069,693.282,157166
550.782,683.829,156416
550.495,674.367,155208
550.208,664.894,153883
549.921,655.412,154109
549.634,645.92,153405
549.347,636.418,153390
549.06,626.906,153221
548.773,617.385,153081
548.486,607.853,151574
548.2,598.311,150879
547.913,588.759,148562
547.626,579.197,146943
547.339,569.626,146266
547.052,560.044,145470
546.765,550.452,144569
546.478,540.85,144804
546.191,531.238,143384
545.904,521.616,141932
545.617,511.983,140332
545.331,502.341,139277
545.044,492.688,139374
544.757,483.026,139091
544.47,473.353,139562
544.183,463.67,138928
543.896,453.976,137491
543.609,444.273,136035
543.322,434.559,135620
543.035,424.835,135412
542.748,415.1,135741
542.462,405.356,135199
542.175,395.601,134563
541.888,385.836,133602
541.601,376.06,132396
541.314,366.274,131453
541.027,356.478,131926
540.74,346.671,130364
540.453,336.854,127993
540.166,327.026,125588
539.879,317.188,125247
539.593,307.339,125712
539.306,297.48,123753
539.019,287.611,117423
538.732,277.731,116676
538.445,267.84,103025
538.158,257.939,73297
537.871,248.028,64014
537.584,238.105,62664
537.297,228.172,62272
537.01,218.229,62344
536.723,208.275,62044
553.152,761.621,158028
552.865,752.24,156881
552.578,742.849,157410
552.291,733.448,156253
552.004,724.037,155756
551.717,714.616,155891
551.43,705.186,155478
551.143,695.746,155271
550.857,686.296,155238
550.57,676.836,153973
550.283,667.366,153418
549.996,657.887,152306
549.709,648.397,152335
549.422,638.898,152044
549.135,629.389,152366
548.848,619.869,151171
548.561,610.34,150793
548.274,600.801,148553
547.988,591.252,147263
547.701,581.693,145978
547.414,572.124,145159
547.127,562.544,144976
546.84,552.955,143579
546.553,543.356,143837
546.266,533.746,141708
545.979,524.127,140579
545.692,514.497,139100
545.405,504.857,138309
545.119,495.207,138191
544.832,485.547,137680
544.545,475.877,138734
544.258,466.197,138026
543.971,456.506,136577
543.684,446.805,135477
543.397,437.094,134557
543.11,427.373,133966
542.823,417.641,134141
542.536,407.899,134499
542.249,398.147,134817
541.963,388.384,132514
541.676,378.611,132048
541.389,368.828,130982
541.102,359.034,130967
540.815,349.23,129089
540.528,339.416,127947
540.241,329.591,125141
539.954,319.755,124117
539.667,309.91,125288
539.38,300.053,123724
539.094,290.186,117951
538.807,280.309,115170
538.52,270.421,109972
538.233,260.523,78844
537.946,250.614,64847
537.659,240.695,62716
537.372,230.765,62335
537.085,220.824,62158
536.798,210.873,62190
553.227,764.067,158661
552.94,754.688,158658
552.653,745.299,158151
552.366,735.901,156752
552.079,726.493,156825
551.792,717.075,156135
551.505,707.647,155925
551.218,698.21,156666
550.931,688.762,155979
550.644,679.305,155261
550.358,669.838,154612
550.071,660.361,153843
549.784,650.874,152342
549.497,641.377,152515
549.21,631.87,153157
548.923,622.354,152833
548.636,612.827,151847
548.349,603.291,149500
548.062,593.744,148341
547.775,584.187,147577
547.489,574.621,145734
547.202,565.044,145123
546.915,555.458,144569
546.628,545.861,144217
546.341,536.254,143378
546.054,526.637,141710
545.767,517.01,140295
545.48,507.373,139020
545.193,497.726,139166
544.906,488.068,138600
544.62,478.401,138824
544.333,468.723,138708
544.046,459.035,137473
543.759,449.337,136970
543.472,439.628,135438
543.185,429.91,134870
542.898,420.181,134584
542.611,410.441,135419
542.324,400.692,134609
542.037,390.932,133215
541.751,381.162,132115
541.464,371.381,131178
541.177,361.59,131345
540.89,351.789,130877
540.603,341.977,129315
540.316,332.155,126356
540.029,322.322,124499
539.742,312.479,124662
539.455,302.625,125538
539.168,292.761,120259
538.881,282.887,115552
538.595,273.002,114300
538.308,263.106,86445
538.021,253.2,66714
537.734,243.283,62935
537.447,233.356,62360
537.16,223.418,62205
536.873,213.47,62214
553.301,766.512,148109
553.015,757.136,148049
552.728,747.75,147892
552.441,738.354,146442
552.154,728.948,146798
551.867,719.533,147069
551.58,710.107,146243
551.293,700.672,146508
551.006,691.228,145988
550.719,681.773,145103
550.432,672.308,144233
550.146,662.834,144132
549.859,653.35,143196
549.572,643.855,143042
549.285,634.351,142551
548.998,624.837,142804
548.711,615.313,142768
548.424,605.779,141556
548.137,596.235,140049
547.85,586.681,137964
547.563,577.117,137614
547.277,567.543,136800
546.99,557.959,136059
546.703,548.365,135802
546.416,538.761,134435
546.129,529.147,132913
545.842,519.523,131888
545.555,509.888,130959
545.268,500.243,129769
544.981,490.589,130766
544.694,480.924,130696
544.407,471.249,130043
544.121,461.563,130126
543.834,451.868,128545
543.547,442.162,127989
543.26,432.446,127153
542.973,422.72,126316
542.686,412.983,127150
542.399,403.236,127427
542.112,393.479,126082
541.825,383.711,125161
541.538,373.933,124269
541.252,364.145,123863
540.965,354.347,124161
540.678,344.537,122130
540.391,334.718,120617
540.104,324.888,118387
539.817,315.048,118284
539.53,305.197,117979
539.243,295.336,115400
538.956,285.464,110725
538.669,275.582,109736
538.383,265.689,91773
538.096,255.785,68413
537.809,245.871,63179
537.522,235.947,62289
537.235,226.012,62057
536.948,216.066,61944
536.661,206.11,61878
553.089,759.583,154837
552.802,750.199,154387
552.516,740.806,153607
552.229,731.403,152054
551.942,721.99,152715
551.655,712.567,152466
551.368,703.135,152451
551.081,693.692,152581
550.794,684.24,152198
550.507,674.778,150791
550.22,665.306,149961
549.933,655.825,148806
549.647,646.333,149166
549.36,636.832,149574
549.073,627.32,149100
548.786,617.799,148989
548.499,608.267,147354
548.212,598.726,145538
547.925,589.175,144072
547.638,579.613,142915
547.351,570.042,142441
547.064,560.461,142368
546.778,550.869,141086
546.491,541.268,140549
546.204,531.656,139664
545.917,522.034,137955
545.63,512.402,136541
545.343,502.76,135062
545.056,493.108,135561
544.769,483.446,135456
544.482,473.774,135871
544.195,464.091,134254
543.909,454.398,133970
543.622,444.695,132900
543.335,434.981,132257
543.048,425.258,131784
542.761,415.524,131899
542.474,405.78,132328
542.187,396.025,131050
541.9,386.26,130160
541.613,376.485,129624
541.326,366.7,128106
541.04,356.904,128369
540.753,347.097,127379
540.466,337.281,125162
540.179,327.453,122883
539.892,317.616,121824
539.605,307.768,122892
539.318,297.909,120557
539.031,288.04,115177
538.744,278.161,114027
538.457,268.271,102538
538.17,258.37,73405
537.884,248.459,64016
537.597,238.537,62570
537.31,228.605,62178
537.023,218.662,62081
536.736,208.708,62069
536.661,206.11,62006

File: Si_onTiO2_100mA_30mW_30sec_5acc_517nm.txt
Wavelength(nm), Raman shift(cm^-1), Intensity(counts)
525.364,-194.586,79571
525.077,-204.986,80458
524.79,-215.398,80968
524.503,-225.821,81606
524.216,-236.256,81696
523.929,-246.702,82011
523.642,-257.159,85164
523.356,-267.628,99121
523.069,-278.109,137870
522.782,-288.6,162261
522.495,-299.104,166430
522.208,-309.619,165520
521.921,-320.145,164117
521.634,-330.684,163324
521.347,-341.233,162388
521.06,-351.795,160559
520.773,-362.368,158399
520.486,-372.952,155914
520.2,-383.548,154893
519.913,-394.156,153626
519.626,-404.776,152508
519.339,-415.408,150408
519.052,-426.051,147823
518.765,-436.706,145887
518.478,-447.373,143663
518.191,-458.051,143328
517.904,-468.742,142310
517.617,-479.444,141392
517.331,-490.158,142862
517.044,-500.884,147264
516.757,-511.622,139910
516.47,-522.372,137427
516.183,-533.134,136716
515.896,-543.907,135864
515.609,-554.693,134691
515.322,-565.491,134290
515.035,-576.301,133628
514.748,-587.123,133078
514.462,-597.957,132193
514.175,-608.803,131190
513.888,-619.661,129318
513.601,-630.531,129008
513.314,-641.413,128239
513.027,-652.308,126370
512.74,-663.215,125929
512.453,-674.134,124485
512.166,-685.065,123224
511.879,-696.008,122441
511.593,-706.964,120685
511.306,-717.932,119762
511.019,-728.913,118253
510.732,-739.905,117208
510.445,-750.91,115696
510.158,-761.928,114988
509.871,-772.958,113634
509.584,-784,112183
509.297,-795.055,111303
509.01,-806.122,109996
508.723,-817.201,109692
525.152,-202.272,80696
524.865,-212.681,81322
524.578,-223.101,81594
524.291,-233.532,82044
524.004,-243.976,82519
523.717,-254.43,84387
523.43,-264.896,93631
523.143,-275.373,130356
522.857,-285.862,163162
522.57,-296.363,170981
522.283,-306.875,171652
521.996,-317.398,169585
521.709,-327.933,167976
521.422,-338.48,166950
521.135,-349.038,165418
520.848,-359.608,163803
520.561,-370.19,161025
520.274,-380.783,159659
519.988,-391.388,157391
519.701,-402.005,156764
519.414,-412.633,155681
519.127,-423.273,153069
518.84,-433.925,150407
518.553,-444.589,148617
518.266,-455.264,147229
517.979,-465.952,146025
517.692,-476.651,145204
517.405,-487.362,145434
517.119,-498.085,151595
516.832,-508.82,144983
516.545,-519.566,141959
516.258,-530.325,140369
515.971,-541.096,139869
515.684,-551.878,138915
515.397,-562.673,138461
515.11,-573.48,137553
514.823,-584.298,136858
514.536,-595.129,135729
514.249,-605.972,134945
513.963,-616.827,133636
513.676,-627.694,132412
513.389,-638.573,130916
513.102,-649.465,130193
512.815,-660.368,128272
512.528,-671.284,128984
512.241,-682.212,126643
511.954,-693.152,125921
511.667,-704.105,123817
511.38,-715.07,122868
511.094,-726.047,121399
510.807,-737.036,120741
510.52,-748.038,119290
510.233,-759.052,118096
509.946,-770.079,116155
509.659,-781.118,114924
509.372,-792.17,113938
509.085,-803.233,112663
508.798,-814.31,111429
525.227,-199.558,80736
524.94,-209.964,81148
524.653,-220.381,81663
524.366,-230.81,82360
524.079,-241.25,82749
523.792,-251.702,83922
523.505,-262.165,89813
523.218,-272.639,119143
522.931,-283.125,158269
522.644,-293.622,171142
522.358,-304.131,172703
522.071,-314.652,171036
521.784,-325.184,169742
521.497,-335.728,168636
521.21,-346.283,167041
520.923,-356.85,164780
520.636,-367.428,163076
520.349,-378.019,160337
520.062,-388.62,158996
519.775,-399.234,158041
519.489,-409.859,156958
519.202,-420.496,154002
518.915,-431.145,152288
518.628,-441.806,149699
518.341,-452.478,149429
518.054,-463.163,147619
517.767,-473.859,146673
517.48,-484.567,145819
517.193,-495.286,151102
516.906,-506.018,147282
516.62,-516.762,143042
516.333,-527.517,141653
516.046,-538.285,140722
515.759,-549.064,139807
515.472,-559.856,139226
515.185,-570.659,138025
514.898,-581.475,137083
514.611,-592.303,136659
514.324,-603.142,135823
514.037,-613.994,134669
513.751,-624.858,133642
513.464,-635.734,132370
513.177,-646.622,131372
512.89,-657.523,129866
512.603,-668.435,129233
512.316,-679.36,127189
512.029,-690.297,126110
511.742,-701.247,124900
511.455,-712.208,123631
511.168,-723.182,122566
510.881,-734.168,121307
510.595,-745.167,120068
510.308,-756.178,118410
510.021,-767.201,117721
509.734,-778.237,116121
509.447,-789.285,114636
509.16,-800.346,113826
508.873,-811.419,112216
525.301,-196.846,80484
525.015,-207.249,80702
524.728,-217.663,81388
524.441,-228.088,81666
524.154,-238.526,82127
523.867,-248.974,83116
523.58,-259.434,86473
523.293,-269.905,106720
523.006,-280.388,148579
522.719,-290.883,167583
522.432,-301.389,169154
522.146,-311.906,169504
521.859,-322.435,167643
521.572,-332.976,166244
521.285,-343.528,164649
520.998,-354.092,162961
520.711,-364.668,161281
520.424,-375.255,158502
520.137,-385.854,158954
519.85,-396.464,156434
519.563,-407.086,155321
519.277,-417.72,152987
518.99,-428.366,149883
518.703,-439.024,147787
518.416,-449.693,146851
518.129,-460.374,145677
517.842,-471.067,144444
517.555,-481.772,143800
517.268,-492.489,147172
516.981,-503.217,148715
516.694,-513.958,141514
516.407,-524.71,140486
516.121,-535.475,139053
515.834,-546.251,137806
515.547,-557.039,137354
515.26,-567.84,136826
514.973,-578.652,135737
514.686,-589.477,135314
514.399,-600.313,134571
514.112,-611.162,133143
513.825,-622.023,131974
513.538,-632.896,131003
513.252,-643.781,129642
512.965,-654.678,129007
512.678,-665.587,128268
512.391,-676.509,126370
512.104,-687.443,125600
511.817,-698.389,123925
511.53,-709.347,122873
511.243,-720.318,120983
510.956,-731.301,120883
510.669,-742.297,118827
510.383,-753.304,117978
510.096,-764.325,116619
509.809,-775.357,115202
509.522,-786.402,113596
509.235,-797.459,112734
508.948,-808.529,111787
508.661,-819.612,110649
525.089,-204.534,80957
524.802,-214.945,81357
524.516,-225.368,82005
524.229,-235.802,82458
523.942,-246.247,83195
523.655,-256.704,85819
523.368,-267.173,99827
523.081,-277.653,140703
522.794,-288.144,168769
522.507,-298.647,173612
522.22,-309.161,173086
521.933,-319.687,171710
521.647,-330.225,169409
521.36,-340.774,168022
521.073,-351.335,167366
520.786,-361.908,165056
520.499,-372.492,163200
520.212,-383.088,161102
519.925,-393.695,159390
519.638,-404.314,159105
519.351,-414.945,156704
519.064,-425.588,154189
518.778,-436.242,151719
518.491,-446.909,150030
518.204,-457.587,148953
517.917,-468.277,147839
517.63,-478.978,147308
517.343,-489.692,147769
517.056,-500.417,152975
516.769,-511.155,145429
516.482,-521.904,143264
516.195,-532.665,141835
515.909,-543.439,140865
515.622,-554.224,140815
515.335,-565.021,139920
515.048,-575.831,138345
514.761,-586.652,137907
514.474,-597.485,137859
514.187,-608.331,135726
513.9,-619.188,135179
513.613,-630.058,134404
513.326,-640.94,132618
513.04,-651.834,131834
512.753,-662.74,130221
512.466,-673.659,128903
512.179,-684.589,127829
511.892,-695.532,126348
511.605,-706.488,124657
511.318,-717.455,123630
511.031,-728.435,122587
510.744,-739.427,121751
510.457,-750.432,119883
510.17,-761.448,118606
509.884,-772.478,117429
509.597,-783.52,116115
509.31,-794.574,114792
509.023,-805.64,113946
508.736,-816.719,112246
508.661,-819.612,112360

File: Si_onTiO2_100mA_30mW_30sec_5acc_517nm_bg.txt
Wavelength(nm), Raman shift(cm^-1), Intensity(counts)
525.364,-194.586,78671
525.077,-204.986,79282
524.79,-215.398,79588
524.503,-225.821,80305
524.216,-236.256,80522
523.929,-246.702,80947
523.642,-257.159,83653
523.356,-267.628,95889
523.069,-278.109,131151
522.782,-288.6,153097
522.495,-299.104,156783
522.208,-309.619,156969
521.921,-320.145,155605
521.634,-330.684,154486
521.347,-341.233,153802
521.06,-351.795,152596
520.773,-362.368,150248
520.486,-372.952,147845
520.2,-383.548,146908
519.913,-394.156,145702
519.626,-404.776,144277
519.339,-415.408,142643
519.052,-426.051,140921
518.765,-436.706,138490
518.478,-447.373,136752
518.191,-458.051,135715
517.904,-468.742,135007
517.617,-479.444,133322
517.331,-490.158,132659
517.044,-500.884,131813
516.757,-511.622,131359
516.47,-522.372,130387
516.183,-533.134,130062
515.896,-543.907,129179
515.609,-554.693,128895
515.322,-565.491,127917
515.035,-576.301,127406
514.748,-587.123,127242
514.462,-597.957,125460
514.175,-608.803,125419
513.888,-619.661,124365
513.601,-630.531,123044
513.314,-641.413,121878
513.027,-652.308,121308
512.74,-663.215,120401
512.453,-674.134,119082
512.166,-685.065,117974
511.879,-696.008,116938
511.593,-706.964,116032
511.306,-717.932,114972
511.019,-728.913,114133
510.732,-739.905,112790
510.445,-750.91,111522
510.158,-761.928,110847
509.871,-772.958,109280
509.584,-784,108005
509.297,-795.055,106791
509.01,-806.122,106197
508.723,-817.201,104870
525.152,-202.272,79719
524.865,-212.681,80524
524.578,-223.101,80947
524.291,-233.532,81033
524.004,-243.976,81168
523.717,-254.43,83385
523.43,-264.896,91557
523.143,-275.373,124354
522.857,-285.862,153308
522.57,-296.363,160321
522.283,-306.875,161052
521.996,-317.398,159615
521.709,-327.933,157694
521.422,-338.48,158122
521.135,-349.038,156142
520.848,-359.608,154205
520.561,-370.19,151952
520.274,-380.783,150780
519.988,-391.388,149436
519.701,-402.005,148590
519.414,-412.633,147654
519.127,-423.273,143653
518.84,-433.925,142565
518.553,-444.589,140674
518.266,-455.264,139477
517.979,-465.952,138655
517.692,-476.651,137101
517.405,-487.362,135823
517.119,-498.085,135144
516.832,-508.82,134301
516.545,-519.566,133395
516.258,-530.325,133226
515.971,-541.096,132878
515.684,-551.878,132188
515.397,-562.673,131491
515.11,-573.48,130031
514.823,-584.298,129118
514.536,-595.129,129067
514.249,-605.972,128866
513.963,-616.827,126998
513.676,-627.694,126177
513.389,-638.573,125107
513.102,-649.465,123789
512.815,-660.368,123200
512.528,-671.284,121844
512.241,-682.212,121338
511.954,-693.152,119458
511.667,-704.105,118714
511.38,-715.07,117518
511.094,-726.047,116369
510.807,-737.036,115831
510.52,-748.038,113838
510.233,-759.052,113071
509.946,-770.079,111720
509.659,-781.118,110248
509.372,-792.17,109373
509.085,-803.233,107921
508.798,-814.31,107483
525.227,-199.558,79734
524.94,-209.964,79957
524.653,-220.381,80552
524.366,-230.81,80821
524.079,-241.25,81243
523.792,-251.702,82272
523.505,-262.165,88098
523.218,-272.639,113535
522.931,-283.125,149263
522.644,-293.622,161368
522.358,-304.131,161774
522.071,-314.652,161011
521.784,-325.184,160185
521.497,-335.728,158347
521.21,-346.283,158110
520.923,-356.85,155884
520.636,-367.428,153615
520.349,-378.019,151612
520.062,-388.62,151055
519.775,-399.234,149297
519.489,-409.859,148689
519.202,-420.496,145374
518.915,-431.145,143338
518.628,-441.806,142070
518.341,-452.478,140263
518.054,-463.163,139381
517.767,-473.859,138011
517.48,-484.567,136938
517.193,-495.286,135652
516.906,-506.018,134986
516.62,-516.762,134712
516.333,-527.517,134258
516.046,-538.285,133236
515.759,-549.064,132680
515.472,-559.856,131923
515.185,-570.659,131143
514.898,-581.475,130538
514.611,-592.303,130382
514.324,-603.142,129444
514.037,-613.994,128227
513.751,-624.858,126563
513.464,-635.734,125649
513.177,-646.622,124939
512.89,-657.523,124390
512.603,-668.435,122714
512.316,-679.36,121442
512.029,-690.297,120350
511.742,-701.247,119070
511.455,-712.208,118070
511.168,-723.182,116684
510.881,-734.168,115891
510.595,-745.167,114736
510.308,-756.178,113532
510.021,-767.201,112642
509.734,-778.237,111116
509.447,-789.285,109938
509.16,-800.346,108943
508.873,-811.419,107388
525.301,-196.846,79731
525.015,-207.249,79983
524.728,-217.663,80500
524.441,-228.088,80855
524.154,-238.526,80898
523.867,-248.974,81788
523.58,-259.434,85406
523.293,-269.905,104017
523.006,-280.388,141952
522.719,-290.883,158369
522.432,-301.389,161639
522.146,-311.906,161413
521.859,-322.435,159002
521.572,-332.976,158354
521.285,-343.528,157015
520.998,-354.092,156162
520.711,-364.668,153914
520.424,-375.255,151943
520.137,-385.854,150827
519.85,-396.464,148771
519.563,-407.086,147914
519.277,-417.72,146177
518.99,-428.366,143556
518.703,-439.024,141353
518.416,-449.693,139735
518.129,-460.374,139515
517.842,-471.067,138066
517.555,-481.772,136485
517.268,-492.489,135919
516.981,-503.217,134955
516.694,-513.958,134872
516.407,-524.71,133847
516.121,-535.475,132859
515.834,-546.251,132834
515.547,-557.039,131500
515.26,-567.84,130899
514.973,-578.652,129257
514.686,-589.477,130165
514.399,-600.313,129029
514.112,-611.162,128025
513.825,-622.023,126593
513.538,-632.896,125957
513.252,-643.781,124379
512.965,-654.678,123899
512.678,-665.587,122750
512.391,-676.509,121538
512.104,-687.443,120332
511.817,-698.389,119126
511.53,-709.347,117434
511.243,-720.318,116992
510.956,-731.301,116202
510.669,-742.297,114897
510.383,-753.304,113618
510.096,-764.325,112655
509.809,-775.357,110774
509.522,-786.402,110402
509.235,-797.459,109034
508.948,-808.529,108111
508.661,-819.612,106710
525.089,-204.534,79523
524.802,-214.945,80106
524.516,-225.368,81081
524.229,-235.802,81146
523.942,-246.247,81735
523.655,-256.704,84112
523.368,-267.173,96404
523.081,-277.653,132409
522.794,-288.144,158059
522.507,-298.647,161284
522.22,-309.161,161742
521.933,-319.687,160476
521.647,-330.225,158390
521.36,-340.774,157813
521.073,-351.335,155949
520.786,-361.908,153985
520.499,-372.492,152018
520.212,-383.088,150629
519.925,-393.695,150309
519.638,-404.314,149374
519.351,-414.945,146811
519.064,-425.588,144842
518.778,-436.242,142193
518.491,-446.909,140286
518.204,-457.587,140003
517.917,-468.277,138545
517.63,-478.978,137274
517.343,-489.692,136211
517.056,-500.417,135715
516.769,-511.155,134504
516.482,-521.904,133966
516.195,-532.665,133574
515.909,-543.439,132727
515.622,-554.224,132259
515.335,-565.021,131130
515.048,-575.831,130446
514.761,-586.652,130597
514.474,-597.485,129705
514.187,-608.331,128514
513.9,-619.188,127563
513.613,-630.058,126550
513.326,-640.94,124859
513.04,-651.834,124192
512.753,-662.74,122804
512.466,-673.659,122398
512.179,-684.589,121093
511.892,-695.532,119506
511.605,-706.488,118489
511.318,-717.455,117131
511.031,-728.435,116584
510.744,-739.427,115182
510.457,-750.432,114477
510.17,-761.448,112846
509.884,-772.478,111789
509.597,-783.52,110230
509.31,-794.574,108477
509.023,-805.64,108383
508.736,-816.719,106881
508.661,-819.612,106484