Folder: flash_scratch/tomke/20240809_Si_on_TiO2/20240809/raw_data

File: laser_0A_1sec_4acc_60mW_671nm.txt
Wavelength(nm), Raman shift(cm^-1), Intensity(counts)
678.12,157.811,59588
677.929,153.653,59857
677.738,149.493,59786
677.547,145.33,59807
677.355,141.165,59781
677.164,136.998,59862
676.973,132.829,59796
676.782,128.657,59751
676.591,124.482,59846
676.4,120.306,59853
676.209,116.127,59854
676.017,111.945,59840
675.826,107.762,59816
675.635,103.576,59811
675.444,99.3872,59807
675.253,95.1963,59839
675.062,91.0031,59831
674.871,86.8075,59777
674.679,82.6096,59840
674.488,78.4092,59868
674.297,74.2065,59784
674.106,70.0014,59799
673.915,65.7939,59827
673.724,61.5841,59877
673.533,57.3718,59835
673.341,53.1571,59789
673.15,48.9401,59859
672.959,44.7206,59792
672.768,40.4988,59785
672.577,36.2746,59776
672.386,32.0479,60116
672.195,27.8189,60159
672.003,23.5874,60032
671.812,19.3536,60064
671.621,15.1173,60036
671.43,10.8786,60035
671.239,6.63751,60499
671.048,2.39399,64014
670.857,-1.85194,964561
670.666,-6.10029,63394
670.474,-10.3511,61845
670.283,-14.6043,61571
670.092,-18.8599,62969
669.901,-23.1179,60540
669.71,-27.3784,60218
669.519,-31.6413,60072
669.328,-35.9067,60060
669.136,-40.1745,60051
668.945,-44.4447,60105
668.754,-48.7174,60075
668.563,-52.9925,60015
668.372,-57.27,60029
668.181,-61.55,60027
667.99,-65.8325,60068
667.798,-70.1174,59989
667.607,-74.4048,59993
667.416,-78.6946,60033
667.225,-82.9868,60005
667.034,-87.2816,60061
666.843,-91.5788,59961
666.652,-95.8784,60002
666.46,-100.181,60034
666.269,-104.485,60013
666.078,-108.792,60042
665.887,-113.102,60000
665.696,-117.414,60059
665.505,-121.728,60035
665.314,-126.045,59963
665.122,-130.365,60059
664.931,-134.687,59940
664.74,-139.011,60127
664.549,-143.338,60060
664.358,-147.667,60012
664.167,-151.999,60049
663.976,-156.334,59906
678.014,155.501,59789
677.823,151.342,59736
677.632,147.181,59863
677.44,143.017,59819
677.249,138.851,59886
677.058,134.682,59841
676.867,130.511,59785
676.676,126.338,59865
676.485,122.162,59833
676.294,117.984,59881
676.102,113.804,59859
675.911,109.621,59798
675.72,105.436,59813
675.529,101.249,59817
675.338,97.0592,59846
675.147,92.8671,59862
674.956,88.6725,59847
674.764,84.4756,59924
674.573,80.2764,59867
674.382,76.0747,59874
674.191,71.8707,59842
674,67.6642,59787
673.809,63.4554,59776
673.618,59.2442,59819
673.426,55.0306,59822
673.235,50.8146,59785
673.044,46.5963,59905
672.853,42.3755,59797
672.662,38.1523,59821
672.471,33.9267,59814
672.28,29.6987,60167
672.088,25.4684,60131
671.897,21.2356,59936
671.706,17.0004,59919
671.515,12.7628,60044
671.324,8.52274,60261
671.133,4.2803,60890
670.942,0.0354428,2622977
670.75,-4.21183,118462
670.559,-8.46153,61802
670.368,-12.7136,62262
670.177,-16.9682,61364
669.986,-21.2252,61317
669.795,-25.4846,60315
669.604,-29.7464,60193
669.412,-34.0107,60102
669.221,-38.2774,60021
669.03,-42.5465,60093
668.839,-46.8181,60072
668.648,-51.0921,60093
668.457,-55.3686,60017
668.266,-59.6475,60111
668.074,-63.9289,60039
667.883,-68.2127,59992
667.692,-72.499,60007
667.501,-76.7877,60083
667.31,-81.0789,60025
667.119,-85.3725,60060
666.928,-89.6686,59992
666.736,-93.9672,60029
666.545,-98.2682,60020
666.354,-102.572,60085
666.163,-106.878,60024
665.972,-111.186,60007
665.781,-115.497,60061
665.59,-119.81,60032
665.398,-124.126,60028
665.207,-128.445,60007
665.016,-132.765,60060
664.825,-137.089,59986
664.634,-141.415,59964
664.443,-145.743,60031
664.252,-150.074,60059
664.06,-154.407,59995
678.099,157.349,59773
677.908,153.191,59788
677.717,149.03,59797
677.525,144.868,59869
677.334,140.702,59799
677.143,136.535,59845
676.952,132.365,59709
676.761,128.193,59759
676.57,124.018,59724
676.379,119.842,59752
676.187,115.662,59851
675.996,111.481,59780
675.805,107.297,59828
675.614,103.11,59803
675.423,98.9216,59781
675.232,94.7305,59742
675.041,90.5371,59804
674.849,86.3412,59790
674.658,82.143,59805
674.467,77.9424,59800
674.276,73.7394,59840
674.085,69.534,59802
673.894,65.3263,59822
673.703,61.1162,59853
673.511,56.9036,59807
673.32,52.6887,59821
673.129,48.4714,59859
672.938,44.2517,59811
672.747,40.0296,59812
672.556,35.8051,59876
672.365,31.5781,60162
672.173,27.3488,60161
671.982,23.1171,60012
671.791,18.883,59989
671.6,14.6464,59996
671.409,10.4075,60049
671.218,6.16613,60534
671.027,1.92234,355127
670.835,-2.32386,856351
670.644,-6.57248,63012
670.453,-10.8235,61936
670.262,-15.077,61217
670.071,-19.3329,62510
669.88,-23.5912,60532
669.689,-27.852,60209
669.497,-32.1151,60168
669.306,-36.3808,60095
669.115,-40.6488,60058
668.924,-44.9193,60023
668.733,-49.1923,60110
668.542,-53.4676,59988
668.351,-57.7455,59987
668.159,-62.0257,60044
667.968,-66.3085,60055
667.777,-70.5936,59981
667.586,-74.8813,59978
667.395,-79.1714,59991
667.204,-83.4639,60068
667.013,-87.7589,60052
666.821,-92.0564,60071
666.63,-96.3563,60012
666.439,-100.659,59971
666.248,-104.964,60052
666.057,-109.271,60007
665.866,-113.581,60115
665.675,-117.893,60087
665.483,-122.208,60042
665.292,-126.525,60026
665.101,-130.845,60063
664.91,-135.167,59971
664.719,-139.492,59969
664.528,-143.819,60069
664.337,-148.148,60091
664.145,-152.481,60028
663.954,-156.815,60059
677.993,155.039,59801
677.801,150.88,59745
677.61,146.718,59755
677.419,142.554,59843
677.228,138.388,59800
677.037,134.219,59862
676.846,130.048,59802
676.655,125.874,59815
676.463,121.698,59748
676.272,117.52,59745
676.081,113.339,59824
675.89,109.157,59744
675.699,104.971,59782
675.508,100.784,59795
675.317,96.5935,59839
675.125,92.4011,59787
674.934,88.2063,59838
674.743,84.0092,59810
674.552,79.8096,59868
674.361,75.6077,59853
674.17,71.4034,59895
673.979,67.1967,59786
673.787,62.9876,59827
673.596,58.7762,59782
673.405,54.5623,59810
673.214,50.346,59835
673.023,46.1274,59805
672.832,41.9064,59806
672.641,37.6829,59809
672.449,33.4571,59965
672.258,29.2288,60092
672.067,24.9982,60073
671.876,20.7651,60009
671.685,16.5296,59980
671.494,12.2918,59997
671.303,8.05148,60270
671.111,3.80877,61095
670.92,-0.436357,2835322
670.729,-4.6839,75228
670.538,-8.93387,61747
670.347,-13.1863,61865
670.156,-17.4411,61681
669.965,-21.6983,61280
669.774,-25.958,60204
669.582,-30.2201,60105
669.391,-34.4846,60095
669.2,-38.7516,59999
669.009,-43.021,60012
668.818,-47.2929,59967
668.627,-51.5672,60064
668.436,-55.8439,60070
668.244,-60.1231,60055
668.053,-64.4047,60008
667.862,-68.6888,60036
667.671,-72.9754,59997
667.48,-77.2644,60118
667.289,-81.5558,59945
667.098,-85.8497,59880
666.906,-90.1461,60076
666.715,-94.4449,59972
666.524,-98.7462,60085
666.333,-103.05,60026
666.142,-107.356,60048
665.951,-111.665,60133
665.76,-115.976,60063
665.568,-120.29,60026
665.377,-124.606,59918
665.186,-128.925,60065
664.995,-133.246,60061
664.804,-137.569,60046
664.613,-141.895,59918
664.422,-146.224,60006
664.23,-150.555,60001
664.039,-154.888,59989
663.901,-158.02,59988

File: Laser_532nm.txt
Wavelength(nm), Raman shift(cm^-1), Intensity(counts)
539.154,292.26,59408
539.091,290.114,59790
539.029,287.968,59745
538.967,285.821,59804
538.904,283.674,59724
538.842,281.526,59740
538.78,279.378,59786
538.717,277.229,59698
538.655,275.079,59732
538.592,272.929,59717
538.53,270.779,59771
538.468,268.628,59730
538.405,266.477,59766
538.343,264.325,59746
538.281,262.173,59721
538.218,260.02,59801
538.156,257.867,59794
538.094,255.713,59702
538.031,253.559,59738
537.969,251.404,59753
537.906,249.248,59712
537.844,247.093,59671
537.782,244.936,59780
537.719,242.779,59688
537.657,240.622,59740
537.595,238.464,59676
537.532,236.306,59782
537.47,234.147,59753
537.407,231.988,59723
537.345,229.828,59747
537.283,227.668,59741
537.22,225.507,59713
537.158,223.345,59710
537.096,221.184,59770
537.033,219.021,59691
536.971,216.858,59715
536.909,214.695,59737
536.846,212.531,59808
536.784,210.367,59669
536.721,208.202,59731
536.659,206.037,59789
536.597,203.871,59664
536.534,201.705,59755
536.472,199.538,59734
536.41,197.37,59802
536.347,195.202,59669
536.285,193.034,59758
536.222,190.865,59711
536.16,188.696,59740
536.098,186.526,59743
536.035,184.355,59653
535.973,182.185,59827
535.911,180.013,59722
535.848,177.841,59751
535.786,175.669,59730
535.723,173.496,59678
535.661,171.322,59747
535.599,169.149,59711
535.536,166.974,59775
535.474,164.799,59739
535.412,162.624,59697
535.349,160.448,59748
535.287,158.271,59757
535.225,156.094,59684
535.162,153.917,59755
535.1,151.739,59703
535.037,149.56,59747
534.975,147.381,59770
534.913,145.202,59695
534.85,143.022,59687
534.788,140.841,59682
534.726,138.66,59620
534.663,136.479,59801
534.601,134.297,59759
534.538,132.114,59720
534.476,129.931,59738
534.414,127.747,59678
534.351,125.563,59720
534.289,123.379,59717
534.227,121.194,59730
534.164,119.008,59675
534.102,116.822,59706
534.039,114.635,59739
533.977,112.448,59785
533.915,110.26,59708
533.852,108.072,59678
533.79,105.883,59714
533.728,103.694,59716
533.665,101.505,59686
533.603,99.3143,59810
533.541,97.1236,59730
533.478,94.9323,59787
533.416,92.7406,59735
533.353,90.5483,59707
533.291,88.3555,59729
533.229,86.1622,59690
533.166,83.9684,59750
533.104,81.774,59711
533.042,79.5792,59786
532.979,77.3838,59731
532.917,75.188,59720
532.854,72.9916,59724
532.792,70.7947,59728
532.73,68.5973,59664
532.667,66.3994,59764
532.605,64.2009,59716
532.543,62.002,59773
532.48,59.8025,59795
532.418,57.6025,59741
532.355,55.402,59768
532.293,53.201,59817
532.231,50.9994,59774
532.168,48.7974,59668
532.106,46.5948,59755
532.044,44.3917,59759
531.981,42.1881,59807
531.919,39.984,59775
531.857,37.7794,59809
531.794,35.5743,59818
531.732,33.3686,59814
531.669,31.1624,59716
531.607,28.9557,59759
531.545,26.7485,59821
531.482,24.5407,59907
531.42,22.3325,59815
531.358,20.1237,59780
531.295,17.9144,59826
531.233,15.7046,59892
531.17,13.4943,59824
531.108,11.2834,59981
531.046,9.07205,60062
530.983,6.86016,60286
530.921,4.64775,60947
530.859,2.43482,632470
530.796,0.221373,2397387
530.734,-1.9926,649204
530.671,-4.20708,182449
530.609,-6.4221,76482
530.547,-8.63763,61279
530.484,-10.8537,61032
530.422,-13.0703,60826
530.36,-15.2873,60940
530.297,-17.505,60913
530.235,-19.7231,61428
530.173,-21.9418,61825
530.11,-24.1609,61754
530.048,-26.3806,61677
529.985,-28.6009,61701
529.923,-30.8216,61396
529.861,-33.0429,61189
529.798,-35.2647,61093
529.736,-37.487,60864
529.674,-39.7098,60866
529.611,-41.9332,60456
529.549,-44.1571,60276
529.486,-46.3815,60178
529.424,-48.6064,60020
529.362,-50.8319,60015
529.299,-53.0579,60154
529.237,-55.2844,60060
529.175,-57.5114,60098
529.112,-59.739,60032
529.05,-61.9671,60050
528.988,-64.1957,60007
528.925,-66.4248,60017
528.863,-68.6545,60067
528.8,-70.8847,59974
528.738,-73.1154,59940
528.676,-75.3466,59988
528.613,-77.5784,60056
528.551,-79.8107,60091
528.489,-82.0435,60038
528.426,-84.2769,60095
528.364,-86.5107,60021
528.301,-88.7451,60016
528.239,-90.9801,59945
528.177,-93.2155,59870
528.114,-95.4515,60008
528.052,-97.688,60020
527.99,-99.9251,60026
527.927,-102.163,59984
527.865,-104.401,60017
527.802,-106.639,60015
527.74,-108.879,60035
527.678,-111.118,59949
527.615,-113.358,59986
527.553,-115.599,60005
527.491,-117.84,60031
527.428,-120.082,60035
527.366,-122.325,59996
527.304,-124.567,59924
527.241,-126.811,59978
527.179,-129.055,59930
527.116,-131.299,59975
527.054,-133.544,59912
526.992,-135.79,60042
526.929,-138.036,60039
526.867,-140.282,60049
526.805,-142.53,59986
526.742,-144.777,60044
526.68,-147.025,60005
526.617,-149.274,59991
526.555,-151.523,60031
526.493,-153.773,59945
526.43,-156.023,59991
526.368,-158.274,60004
526.306,-160.526,59971
526.243,-162.778,59942
526.181,-165.03,60035
526.118,-167.283,59920
526.056,-169.536,60016
525.994,-171.791,59988
525.931,-174.045,60030
525.869,-176.3,60062
525.807,-178.556,60147
525.744,-180.812,60000
525.682,-183.069,60061
525.62,-185.326,59970
525.557,-187.584,60058
525.495,-189.842,60004
525.432,-192.101,60086
525.37,-194.36,59949
525.308,-196.62,59977
525.245,-198.881,59922
525.183,-201.142,60010
525.121,-203.403,60049
525.058,-205.666,59990
524.996,-207.928,60033
524.933,-210.191,59932
524.871,-212.455,59989
524.809,-214.719,60107
524.746,-216.984,59974
524.684,-219.249,59952
524.622,-221.515,60004
524.559,-223.782,59940
524.497,-226.049,60029
524.434,-228.316,59988
524.372,-230.584,59977
524.31,-232.853,59940
524.247,-235.122,60040
524.185,-237.391,59875
524.123,-239.661,59960
524.06,-241.932,59947
523.998,-244.203,59989
523.936,-246.475,60021
523.873,-248.748,60016
523.811,-251.02,59973
523.748,-253.294,60015
523.686,-255.568,59914
523.624,-257.842,59990
523.561,-260.117,60000
523.499,-262.393,59930
523.437,-264.669,60007
523.374,-266.946,59998
523.312,-269.223,59999
523.249,-271.501,59928
523.187,-273.779,59950
523.125,-276.058,60010
523.062,-278.337,60014
523,-280.617,59945
522.938,-282.898,59986
522.875,-285.179,60036
522.813,-287.46,59989
522.75,-289.742,60032
522.688,-292.025,59845
522.626,-294.308,59982
522.563,-296.592,60011
522.501,-298.876,59964
522.451,-300.704,60050

File: Si_0A_30sec_4acc_60mW_695nm_bg.txt
Wavelength(nm), Raman shift(cm^-1), Intensity(counts)
702.12,661.884,59668
701.929,658.005,60031
701.738,654.125,60037
701.547,650.242,59991
701.355,646.357,60026
701.164,642.47,59978
700.973,638.582,60033
700.782,634.69,59938
700.591,630.797,59971
700.4,626.902,59936
700.209,623.004,60071
700.017,619.105,60006
699.826,615.203,59959
699.635,611.299,60039
699.444,607.393,60058
699.253,603.485,60003
699.062,599.575,59976
698.871,595.662,60030
698.679,591.748,59929
698.488,587.831,60042
698.297,583.912,59964
698.106,579.991,60053
697.915,576.068,59922
697.724,572.143,59988
697.533,568.216,59957
697.341,564.286,60003
697.15,560.354,60016
696.959,556.42,59970
696.768,552.484,59978
696.577,548.546,59974
696.386,544.606,60082
696.195,540.663,59952
696.003,536.718,59889
695.812,532.772,60032
695.621,528.823,59937
695.43,524.871,60016
695.239,520.918,59945
695.048,516.962,59993
694.857,513.005,60005
694.666,509.045,59950
694.474,505.083,59946
694.283,501.118,59952
694.092,497.152,59986
693.901,493.183,59983
693.71,489.212,59934
693.519,485.239,59937
693.328,481.264,60063
693.136,477.287,59960
692.945,473.307,60042
692.754,469.326,59986
692.563,465.342,60059
692.372,461.355,59923
692.181,457.367,59977
691.99,453.376,60051
691.798,449.384,59985
691.607,445.389,59975
691.416,441.391,59962
691.225,437.392,60003
691.034,433.39,59962
690.843,429.386,59998
690.652,425.38,59986
690.46,421.372,60003
690.269,417.362,60000
690.078,413.349,59999
689.887,409.334,59951
689.696,405.317,59961
689.505,401.297,59970
689.314,397.276,60007
689.122,393.252,59927
688.931,389.226,59950
688.74,385.197,59997
688.549,381.167,59950
688.358,377.134,59989
688.167,373.099,59980
687.976,369.062,60036
702.014,659.729,59939
701.823,655.85,60000
701.632,651.968,59875
701.44,648.084,60063
701.249,644.198,59920
701.058,640.31,59924
700.867,636.42,60035
700.676,632.528,60065
700.485,628.633,59992
700.294,624.737,60047
700.102,620.838,59986
699.911,616.937,59963
699.72,613.035,59937
699.529,609.129,60043
699.338,605.222,59957
699.147,601.313,60020
698.956,597.402,60004
698.764,593.488,60012
698.573,589.572,59925
698.382,585.654,59964
698.191,581.734,59980
698,577.812,60014
697.809,573.888,60010
697.618,569.961,60016
697.426,566.033,59988
697.235,562.102,60006
697.044,558.169,59955
696.853,554.234,60007
696.662,550.297,60007
696.471,546.357,60012
696.28,542.416,59985
696.088,538.472,60037
695.897,534.526,59952
695.706,530.578,60077
695.515,526.628,60019
695.324,522.675,60009
695.133,518.721,60016
694.942,514.764,59929
694.75,510.805,60052
694.559,506.844,59980
694.368,502.881,60023
694.177,498.915,60130
693.986,494.947,59934
693.795,490.978,59974
693.604,487.006,59874
693.412,483.031,60029
693.221,479.055,59922
693.03,475.076,60066
692.839,471.095,60024
692.648,467.112,62668
692.457,463.127,59994
692.266,459.14,60000
692.074,455.15,60002
691.883,451.158,59955
691.692,447.164,59951
691.501,443.168,59924
691.31,439.17,59948
691.119,435.169,59913
690.928,431.166,60032
690.736,427.161,59943
690.545,423.154,60062
690.354,419.144,60028
690.163,415.133,60011
689.972,411.119,60005
689.781,407.102,59916
689.59,403.084,60002
689.398,399.063,60046
689.207,395.041,59999
689.016,391.015,60027
688.825,386.988,59934
688.634,382.958,59987
688.443,378.927,60006
688.252,374.893,59883
688.06,370.856,60052
702.099,661.453,59929
701.908,657.574,60019
701.717,653.693,59962
701.525,649.811,59995
701.334,645.926,59970
701.143,642.038,60050
700.952,638.149,60048
700.761,634.258,60051
700.57,630.364,59974
700.379,626.469,59981
700.187,622.571,60089
699.996,618.671,60025
699.805,614.769,60005
699.614,610.865,59976
699.423,606.959,59981
699.232,603.051,60049
699.041,599.14,59986
698.849,595.228,59975
698.658,591.313,59999
698.467,587.396,59880
698.276,583.477,59917
698.085,579.556,60045
697.894,575.632,60030
697.703,571.707,59993
697.511,567.779,60008
697.32,563.849,59969
697.129,559.917,59955
696.938,555.983,60052
696.747,552.047,59985
696.556,548.108,60021
696.365,544.168,60019
696.173,540.225,60043
695.982,536.28,59925
695.791,532.333,59959
695.6,528.384,59944
695.409,524.432,59997
695.218,520.479,60021
695.027,516.523,59971
694.835,512.565,59953
694.644,508.605,59991
694.453,504.642,60004
694.262,500.678,59981
694.071,496.711,59950
693.88,492.742,59980
693.689,488.771,59946
693.497,484.798,59952
693.306,480.822,59999
693.115,476.845,59955
692.924,472.865,59933
692.733,468.883,59994
692.542,464.899,59960
692.351,460.912,60033
692.159,456.924,59972
691.968,452.933,59997
691.777,448.94,60074
691.586,444.945,59975
691.395,440.947,60002
691.204,436.947,59951
691.013,432.946,59925
690.821,428.941,60002
690.63,424.935,59996
690.439,420.927,60061
690.248,416.916,59982
690.057,412.903,60002
689.866,408.888,59970
689.675,404.87,60019
689.483,400.851,59977
689.292,396.829,60020
689.101,392.805,60006
688.91,388.778,59905
688.719,384.75,59962
688.528,380.719,60048
688.337,376.686,59951
688.145,372.651,59977
687.954,368.613,60042
701.993,659.298,59964
701.801,655.418,59969
701.61,651.537,60028
701.419,647.652,59953
701.228,643.766,59964
701.037,639.878,60006
700.846,635.988,59980
700.655,632.095,59948
700.463,628.201,60031
700.272,624.304,59839
700.081,620.405,60015
699.89,616.504,59989
699.699,612.601,59940
699.508,608.695,59956
699.317,604.788,60022
699.125,600.878,59963
698.934,596.967,59923
698.743,593.053,59919
698.552,589.137,59943
698.361,585.219,59993
698.17,581.299,59968
697.979,577.376,59993
697.787,573.452,60036
697.596,569.525,60055
697.405,565.596,59988
697.214,561.665,60007
697.023,557.732,59977
696.832,553.797,59983
696.641,549.859,60007
696.449,545.919,59970
696.258,541.978,60036
696.067,538.034,59924
695.876,534.087,59992
695.685,530.139,59978
695.494,526.189,59957
695.303,522.236,60055
695.111,518.281,59964
694.92,514.324,59933
694.729,510.365,59949
694.538,506.404,59970
694.347,502.44,59980
694.156,498.474,60002
693.965,494.506,60000
693.774,490.536,60089
693.582,486.564,59964
693.391,482.59,59961
693.2,478.613,59962
693.009,474.634,60012
692.818,470.653,59904
692.627,466.67,59930
692.436,462.684,59985
692.244,458.697,59985
692.053,454.707,59948
691.862,450.715,59916
691.671,446.72,59974
691.48,442.724,59966
691.289,438.725,59972
691.098,434.724,60046
690.906,430.721,60019
690.715,426.716,59906
690.524,422.708,59924
690.333,418.699,59960
690.142,414.687,59928
689.951,410.672,60026
689.76,406.656,59943
689.568,402.637,60005
689.377,398.617,60030
689.186,394.593,60045
688.995,390.568,59959
688.804,386.54,59971
688.613,382.511,59918
688.422,378.479,59965
688.23,374.444,59996
688.039,370.408,60012
687.901,367.491,60006