Folder: flash_scratch/tomke/20240809_Si_on_TiO2/20240809/raw_data (part 3)

File: Si_onTiO2_0mA_30mW_30sec_3acc_517nm_bg_new.txt
Wavelength(nm), Raman shift(cm^-1), Intensity(counts)
524.12,-239.756,59753
523.971,-245.17,60018
523.823,-250.586,60098
523.674,-256.006,59955
523.525,-261.428,59968
523.377,-266.854,60046
523.228,-272.283,60080
523.079,-277.715,59930
522.931,-283.15,59987
522.782,-288.588,59954
522.633,-294.029,59988
522.485,-299.473,59944
522.336,-304.921,60042
522.187,-310.371,59968
522.039,-315.825,59933
521.89,-321.282,60006
521.741,-326.741,59948
521.593,-332.204,60000
521.444,-337.67,60033
521.295,-343.14,60013
521.147,-348.612,60026
520.998,-354.087,59936
520.849,-359.566,60043
520.701,-365.047,59978
520.552,-370.532,59988
520.403,-376.02,59958
520.255,-381.511,59919
520.106,-387.005,59985
519.957,-392.503,60006
519.809,-398.003,60010
519.66,-403.507,59982
519.511,-409.013,60001
519.363,-414.523,60035
519.214,-420.037,60034
519.065,-425.553,60055
518.917,-431.072,60025
518.768,-436.595,60007
518.619,-442.12,59951
518.471,-447.649,59937
518.322,-453.181,59997
518.173,-458.717,59952
518.025,-464.255,60032
517.876,-469.797,60018
517.727,-475.341,59966
517.579,-480.889,59962
517.43,-486.441,60015
517.281,-491.995,59980
517.133,-497.552,59926
516.984,-503.113,59978
516.835,-508.677,59978
516.687,-514.244,59980
516.538,-519.815,60003
516.389,-525.388,60060
516.241,-530.965,59970
516.092,-536.545,59937
515.943,-542.128,59933
515.795,-547.715,60029
515.646,-553.304,59994
515.497,-558.897,59997
515.349,-564.493,59979
515.2,-570.092,59964
515.051,-575.695,59977
514.903,-581.301,60009
514.754,-586.91,60009
514.605,-592.522,59933
514.457,-598.137,60058
514.308,-603.756,59955
514.159,-609.378,59939
514.011,-615.003,59947
513.862,-620.632,59966
513.713,-626.264,60040
513.565,-631.899,60036
513.416,-637.537,60022
513.267,-643.179,60000
513.119,-648.823,59969
512.97,-654.472,59990
512.821,-660.123,59981
512.673,-665.778,59981
512.524,-671.435,59952
512.375,-677.097,60094
512.227,-682.761,59960
512.078,-688.429,59981
511.929,-694.1,60037
511.781,-699.774,60024
511.632,-705.452,60014
511.483,-711.133,59984
511.335,-716.817,59967
511.186,-722.505,59944
511.037,-728.196,60014
510.889,-733.89,60044
510.74,-739.587,60049
510.591,-745.288,59939
510.443,-750.992,59990
510.294,-756.7,60027
510.145,-762.411,60032
509.997,-768.125,60034
524.078,-241.303,59958
523.929,-246.717,59942
523.78,-252.134,59967
523.632,-257.555,59987
523.483,-262.978,59984
523.334,-268.405,59982
523.186,-273.835,59967
523.037,-279.267,60044
522.888,-284.703,59930
522.74,-290.142,60023
522.591,-295.584,59938
522.442,-301.03,60023
522.294,-306.478,60014
522.145,-311.929,60118
521.996,-317.384,59975
521.848,-322.841,60020
521.699,-328.302,59968
521.55,-333.766,60066
521.402,-339.233,59992
521.253,-344.703,59995
521.104,-350.176,59966
520.956,-355.652,60001
520.807,-361.132,59960
520.658,-366.614,59899
520.51,-372.1,59945
520.361,-377.589,59974
520.212,-383.081,60043
520.064,-388.576,59935
519.915,-394.074,59982
519.766,-399.575,60034
519.618,-405.08,60048
519.469,-410.587,60000
519.32,-416.098,60056
519.172,-421.612,59940
519.023,-427.129,60018
518.874,-432.65,60001
518.726,-438.173,59964
518.577,-443.7,59897
518.428,-449.23,60064
518.28,-454.763,59988
518.131,-460.299,59988
517.982,-465.838,60005
517.834,-471.381,59991
517.685,-476.926,59984
517.536,-482.475,60022
517.388,-488.027,59967
517.239,-493.582,59961
517.09,-499.141,60044
516.942,-504.703,59974
516.793,-510.267,60015
516.644,-515.835,59980
516.496,-521.407,60015
516.347,-526.981,60002
516.198,-532.559,59984
516.05,-538.14,60015
515.901,-543.724,60044
515.752,-549.311,59964
515.604,-554.902,59900
515.455,-560.496,60072
515.306,-566.093,59958
515.158,-571.693,60014
515.009,-577.296,59939
514.86,-582.903,59933
514.712,-588.513,59966
514.563,-594.126,60043
514.414,-599.743,59953
514.266,-605.362,60022
514.117,-610.985,60018
513.968,-616.611,59991
513.82,-622.241,60002
513.671,-627.873,60017
513.522,-633.509,60063
513.374,-639.149,60069
513.225,-644.791,60051
513.076,-650.437,60043
512.928,-656.086,59983
512.779,-661.738,60055
512.63,-667.394,59952
512.482,-673.053,59995
512.333,-678.715,59942
512.184,-684.38,59967
512.036,-690.049,59975
511.887,-695.721,60054
511.738,-701.396,59950
511.59,-707.075,60062
511.441,-712.757,60010
511.292,-718.442,59940
511.144,-724.13,60040
510.995,-729.822,59910
510.846,-735.517,59975
510.698,-741.216,59987
510.549,-746.918,59917
510.4,-752.623,59937
510.252,-758.331,59989
510.103,-764.043,59945
509.954,-769.758,59960
524.035,-242.849,60037
523.886,-248.264,60082
523.738,-253.683,59981
523.589,-259.104,60059
523.44,-264.528,60026
523.292,-269.956,59940
523.143,-275.387,59982
522.994,-280.82,60147
522.846,-286.257,60070
522.697,-291.697,60021
522.548,-297.14,59990
522.4,-302.586,60041
522.251,-308.035,60001
522.102,-313.487,60008
521.954,-318.943,60013
521.805,-324.401,60054
521.656,-329.863,59973
521.508,-335.327,60074
521.359,-340.795,60097
521.21,-346.266,59985
521.062,-351.74,60004
520.913,-357.217,60033
520.764,-362.698,60086
520.616,-368.181,60004
520.467,-373.668,59967
520.318,-379.157,60049
520.17,-384.65,60009
520.021,-390.146,59998
519.872,-395.645,59982
519.724,-401.148,59948
519.575,-406.653,59924
519.426,-412.162,60005
519.278,-417.673,59951
519.129,-423.188,59998
518.98,-428.706,59949
518.832,-434.228,60018
518.683,-439.752,60000
518.534,-445.279,59982
518.386,-450.81,59985
518.237,-456.344,59987
518.088,-461.881,59998
517.94,-467.421,59930
517.791,-472.965,59938
517.642,-478.511,59999
517.494,-484.061,59943
517.345,-489.614,59965
517.196,-495.17,60024
517.048,-500.73,60067
516.899,-506.292,59981
516.75,-511.858,59934
516.602,-517.427,59995
516.453,-522.999,60079
516.304,-528.575,59961
516.156,-534.153,59971
516.007,-539.735,59973
515.858,-545.32,59980
515.71,-550.908,60015
515.561,-556.5,59988
515.412,-562.094,59959
515.264,-567.692,59972
515.115,-573.293,59998
514.966,-578.898,60022
514.818,-584.505,60009
514.669,-590.116,59914
514.52,-595.73,59905
514.372,-601.348,59985
514.223,-606.968,59903
514.074,-612.592,60002
513.926,-618.219,59929
513.777,-623.85,59942
513.628,-629.483,59980
513.48,-635.12,59986
513.331,-640.76,60055
513.182,-646.404,59996
513.034,-652.05,60022
512.885,-657.7,60036
512.736,-663.354,60042
512.588,-669.01,60001
512.439,-674.67,60055
512.29,-680.333,59975
512.142,-685.999,60036
511.993,-691.669,60014
511.844,-697.342,60025
511.696,-703.018,59980
511.547,-708.698,59966
511.398,-714.381,60002
511.25,-720.067,60009
511.101,-725.756,59970
510.952,-731.449,60003
510.804,-737.145,59975
510.655,-742.845,59962
510.506,-748.547,60025
510.358,-754.253,59984
510.209,-759.963,60041
510.06,-765.676,59963
509.912,-771.392,60013
509.901,-771.8,59966

File: Si_onTiO2_0mA_30mW_30sec_3acc_545nm_bg_new.txt
Wavelength(nm), Raman shift(cm^-1), Intensity(counts)
552.12,727.839,59794
551.971,722.961,60005
551.823,718.08,60005
551.674,713.197,59915
551.525,708.31,60014
551.377,703.422,60025
551.228,698.53,59993
551.079,693.636,59966
550.931,688.74,60109
550.782,683.84,59953
550.633,678.938,60027
550.485,674.034,60056
550.336,669.127,59982
550.187,664.217,59980
550.039,659.304,59942
549.89,654.389,60051
549.741,649.471,59942
549.593,644.55,59991
549.444,639.627,59973
549.295,634.701,59972
549.147,629.773,60040
548.998,624.842,60055
548.849,619.908,59964
548.701,614.971,60032
548.552,610.032,59993
548.403,605.09,59953
548.255,600.146,59993
548.106,595.198,59911
547.957,590.248,59933
547.809,585.296,60012
547.66,580.34,59974
547.511,575.382,60013
547.363,570.422,59990
547.214,565.458,60041
547.065,560.492,60034
546.917,555.523,59961
546.768,550.552,60006
546.619,545.578,59983
546.471,540.601,60022
546.322,535.621,59948
546.173,530.639,59992
546.025,525.654,60048
545.876,520.666,60034
545.727,515.676,60082
545.579,510.682,59988
545.43,505.686,60082
545.281,500.688,60057
545.133,495.686,60071
544.984,490.682,60011
544.835,485.676,59988
544.687,480.666,59963
544.538,475.654,59985
544.389,470.639,59936
544.241,465.621,60027
544.092,460.6,59984
543.943,455.577,60061
543.795,450.551,60096
543.646,445.522,60058
543.497,440.491,59987
543.349,435.457,60025
543.2,430.42,59985
543.051,425.38,59989
542.903,420.337,59978
542.754,415.292,60054
542.605,410.244,60063
542.457,405.193,59980
542.308,400.139,60015
542.159,395.083,59988
542.011,390.024,59979
541.862,384.962,59987
541.713,379.897,59943
541.565,374.83,60088
541.416,369.76,59960
541.267,364.687,59983
541.119,359.611,60007
540.97,354.532,59927
540.821,349.451,59997
540.673,344.367,60001
540.524,339.28,60028
540.375,334.19,59976
540.227,329.097,59994
540.078,324.002,60013
539.929,318.903,59939
539.781,313.802,59989
539.632,308.699,60058
539.483,303.592,59944
539.335,298.483,60017
539.186,293.37,60048
539.037,288.255,60019
538.889,283.137,60039
538.74,278.016,59985
538.591,272.893,60027
538.443,267.766,60029
538.294,262.637,60042
538.145,257.505,60006
537.997,252.37,59961
552.078,726.446,60101
551.929,721.567,59944
551.78,716.685,60092
551.632,711.801,59955
551.483,706.914,59953
551.334,702.024,59910
551.186,697.132,59905
551.037,692.238,60051
550.888,687.34,59977
550.74,682.44,59954
550.591,677.537,59947
550.442,672.632,59969
550.294,667.724,60065
550.145,662.813,60024
549.996,657.9,60019
549.848,652.984,59990
549.699,648.065,59953
549.55,643.144,60046
549.402,638.22,59990
549.253,633.294,59978
549.104,628.364,60033
548.956,623.432,60001
548.807,618.498,59996
548.658,613.56,59955
548.51,608.62,59981
548.361,603.678,60041
548.212,598.732,59977
548.064,593.784,60017
547.915,588.834,59949
547.766,583.88,60021
547.618,578.924,59858
547.469,573.965,60013
547.32,569.004,60013
547.172,564.04,60002
547.023,559.073,59889
546.874,554.103,60082
546.726,549.131,59978
546.577,544.156,59983
546.428,539.178,59943
546.28,534.198,59979
546.131,529.215,60054
545.982,524.229,60027
545.834,519.24,60045
545.685,514.249,60010
545.536,509.255,60055
545.388,504.259,60009
545.239,499.259,60024
545.09,494.257,59959
544.942,489.252,59962
544.793,484.245,60048
544.644,479.234,59938
544.496,474.221,60100
544.347,469.205,60042
544.198,464.187,60043
544.05,459.165,59926
543.901,454.141,59936
543.752,449.115,60000
543.604,444.085,60066
543.455,439.053,60021
543.306,434.018,60001
543.158,428.98,60007
543.009,423.939,59960
542.86,418.896,59961
542.712,413.85,60033
542.563,408.801,60066
542.414,403.749,59959
542.266,398.695,59971
542.117,393.638,59970
541.968,388.578,60024
541.82,383.515,60068
541.671,378.45,60054
541.522,373.382,59936
541.374,368.31,59957
541.225,363.237,60025
541.076,358.16,59984
540.928,353.081,60053
540.779,347.998,59977
540.63,342.913,60035
540.482,337.826,59992
540.333,332.735,60013
540.184,327.642,60046
540.036,322.545,59958
539.887,317.446,59978
539.738,312.345,59971
539.59,307.24,59997
539.441,302.132,59969
539.292,297.022,59954
539.144,291.909,59922
538.995,286.793,59914
538.846,281.674,59995
538.698,276.553,60043
538.549,271.429,59947
538.4,266.301,59938
538.252,261.171,60049
538.103,256.038,60040
537.954,250.903,59968
552.035,725.052,59968
551.886,720.172,60015
551.738,715.29,60048
551.589,710.405,59956
551.44,705.517,59941
551.292,700.627,59978
551.143,695.734,59944
550.994,690.839,60050
550.846,685.94,60015
550.697,681.04,60011
550.548,676.136,60034
550.4,671.23,60015
550.251,666.321,59973
550.102,661.41,60012
549.954,656.496,60001
549.805,651.579,59953
549.656,646.66,60051
549.508,641.738,60032
549.359,636.813,60061
549.21,631.885,60001
549.062,626.955,60043
548.913,622.023,59962
548.764,617.087,60020
548.616,612.149,59999
548.467,607.208,60028
548.318,602.265,60006
548.17,597.319,59847
548.021,592.37,59993
547.872,587.419,59943
547.724,582.464,60000
547.575,577.508,59949
547.426,572.548,59976
547.278,567.586,59994
547.129,562.621,59992
546.98,557.653,59921
546.832,552.683,59942
546.683,547.71,59957
546.534,542.734,59922
546.386,537.756,60051
546.237,532.774,60007
546.088,527.791,59990
545.94,522.804,59980
545.791,517.815,60148
545.642,512.823,59977
545.494,507.828,59957
545.345,502.83,60063
545.196,497.83,59963
545.048,492.827,59999
544.899,487.822,59962
544.75,482.813,60005
544.602,477.802,59986
544.453,472.788,60013
544.304,467.772,60040
544.156,462.752,59948
544.007,457.73,59963
543.858,452.705,60038
543.71,447.678,60013
543.561,442.648,60005
543.412,437.614,60042
543.264,432.579,59978
543.115,427.54,59961
542.966,422.499,60051
542.818,417.455,60060
542.669,412.408,59955
542.52,407.358,60071
542.372,402.306,60075
542.223,397.25,59991
542.074,392.193,59994
541.926,387.132,59944
541.777,382.068,59932
541.628,377.002,59972
541.48,371.933,59985
541.331,366.861,59975
541.182,361.786,60032
541.034,356.709,60039
540.885,351.629,59961
540.736,346.546,59968
540.588,341.46,59876
540.439,336.371,60042
540.29,331.28,59921
540.142,326.186,59969
539.993,321.089,59942
539.844,315.989,60020
539.696,310.886,59957
539.547,305.781,60044
539.398,300.673,59967
539.25,295.562,60021
539.101,290.448,59916
538.952,285.331,60025
538.804,280.211,59965
538.655,275.089,59966
538.506,269.964,60078
538.358,264.836,59955
538.209,259.705,60068
538.06,254.571,60012
537.912,249.435,59913
537.901,249.068,59944

File: Si_onTiO2_0mA_30mW_30sec_4acc_517nm.txt
Wavelength(nm), Raman shift(cm^-1), Intensity(counts)
524.12,-239.756,59662
523.929,-246.717,60075
523.738,-253.683,60018
523.547,-260.654,59907
523.355,-267.629,59941
523.164,-274.611,60026
522.973,-281.597,60043
522.782,-288.588,60019
522.591,-295.584,60007
522.4,-302.586,60011
522.209,-309.592,60162
522.017,-316.604,60251
521.826,-323.621,60199
521.635,-330.643,60186
521.444,-337.67,60196
521.253,-344.703,60142
521.062,-351.74,60221
520.871,-358.783,60202
520.679,-365.831,60151
520.488,-372.884,60131
520.297,-379.942,60067
520.106,-387.005,60099
519.915,-394.074,60070
519.724,-401.148,60094
519.533,-408.227,60023
519.341,-415.311,59980
519.15,-422.4,60040
518.959,-429.495,60092
518.768,-436.595,60066
518.577,-443.7,60114
518.386,-450.81,60101
518.195,-457.926,59986
518.003,-465.047,60012
517.812,-472.173,59919
517.621,-479.304,60036
517.43,-486.441,60065
517.239,-493.582,60064
517.048,-500.73,60028
516.857,-507.882,60197
516.666,-515.04,62733
516.474,-522.203,61940
516.283,-529.371,60141
516.092,-536.545,60035
515.901,-543.724,60011
515.71,-550.908,59987
515.519,-558.098,60005
515.328,-565.293,60036
515.136,-572.493,59998
514.945,-579.699,60063
514.754,-586.91,60085
514.563,-594.126,59979
514.372,-601.348,60102
514.181,-608.575,59966
513.99,-615.807,59970
513.798,-623.045,60069
513.607,-630.288,60007
513.416,-637.537,59998
513.225,-644.791,60071
513.034,-652.05,59992
512.843,-659.315,60008
512.652,-666.586,60070
512.46,-673.861,59992
512.269,-681.142,60120
512.078,-688.429,59942
511.887,-695.721,59926
511.696,-703.018,59940
511.505,-710.321,60047
511.314,-717.63,59940
511.122,-724.943,59987
510.931,-732.263,59972
510.74,-739.587,60039
510.549,-746.918,59967
510.358,-754.253,60009
510.167,-761.595,60007
509.976,-768.941,59966
524.014,-243.623,60020
523.823,-250.586,59976
523.632,-257.555,59991
523.44,-264.528,59995
523.249,-271.507,59974
523.058,-278.491,59909
522.867,-285.48,59942
522.676,-292.474,60025
522.485,-299.473,59948
522.294,-306.478,60097
522.102,-313.487,60156
521.911,-320.502,60170
521.72,-327.522,60318
521.529,-334.547,60288
521.338,-341.577,60218
521.147,-348.612,60199
520.956,-355.652,60164
520.764,-362.698,60073
520.573,-369.748,60136
520.382,-376.804,60087
520.191,-383.865,60107
520,-390.932,60099
519.809,-398.003,60028
519.618,-405.08,60049
519.426,-412.162,60140
519.235,-419.249,60092
519.044,-426.341,60133
518.853,-433.439,60089
518.662,-440.541,60054
518.471,-447.649,60108
518.28,-454.763,60087
518.088,-461.881,60052
517.897,-469.005,60013
517.706,-476.134,60048
517.515,-483.268,60098
517.324,-490.408,60042
517.133,-497.552,60182
516.942,-504.703,60097
516.75,-511.858,60523
516.559,-519.019,66650
516.368,-526.185,60402
516.177,-533.356,60121
515.986,-540.533,59981
515.795,-547.715,59973
515.604,-554.902,59997
515.412,-562.094,60012
515.221,-569.292,59957
515.03,-576.496,60029
514.839,-583.704,59994
514.648,-590.918,59961
514.457,-598.137,60124
514.266,-605.362,60057
514.074,-612.592,60126
513.883,-619.828,59988
513.692,-627.069,59980
513.501,-634.315,60063
513.31,-641.566,59925
513.119,-648.823,60063
512.928,-656.086,59967
512.736,-663.354,60027
512.545,-670.627,59959
512.354,-677.906,60054
512.163,-685.19,60036
511.972,-692.479,59939
511.781,-699.774,59950
511.59,-707.075,59984
511.398,-714.381,59978
511.207,-721.692,59978
511.016,-729.009,60037
510.825,-736.331,60009
510.634,-743.659,59987
510.443,-750.992,59975
510.252,-758.331,60050
510.06,-765.676,59959
524.099,-240.529,59881
523.908,-247.491,60062
523.717,-254.457,60057
523.525,-261.428,59933
523.334,-268.405,59955
523.143,-275.387,59995
522.952,-282.373,59999
522.761,-289.365,60111
522.57,-296.362,59990
522.379,-303.364,60030
522.187,-310.371,60129
521.996,-317.384,60106
521.805,-324.401,60256
521.614,-331.424,60333
521.423,-338.451,60309
521.232,-345.484,60276
521.041,-352.522,60134
520.849,-359.566,60124
520.658,-366.614,60177
520.467,-373.668,60092
520.276,-380.726,60167
520.085,-387.79,60088
519.894,-394.86,59972
519.703,-401.934,60113
519.511,-409.013,60197
519.32,-416.098,60056
519.129,-423.188,60078
518.938,-430.283,60054
518.747,-437.384,60099
518.556,-444.49,60055
518.365,-451.6,60027
518.173,-458.717,59992
517.982,-465.838,60020
517.791,-472.965,59927
517.6,-480.097,60058
517.409,-487.234,59996
517.218,-494.376,60039
517.027,-501.524,60070
516.835,-508.677,60264
516.644,-515.835,64404
516.453,-522.999,61400
516.262,-530.168,60058
516.071,-537.342,60101
515.88,-544.522,60036
515.689,-551.707,60034
515.497,-558.897,60048
515.306,-566.093,60015
515.115,-573.293,60011
514.924,-580.5,59999
514.733,-587.711,60119
514.542,-594.928,59970
514.351,-602.151,60049
514.159,-609.378,60074
513.968,-616.611,59963
513.777,-623.85,59990
513.586,-631.094,60024
513.395,-638.343,59986
513.204,-645.597,60036
513.013,-652.857,59968
512.821,-660.123,60030
512.63,-667.394,60001
512.439,-674.67,59974
512.248,-681.952,60000
512.057,-689.239,60028
511.866,-696.531,60000
511.675,-703.83,59987
511.483,-711.133,59922
511.292,-718.442,59974
511.101,-725.756,60030
510.91,-733.076,59960
510.719,-740.402,59936
510.528,-747.733,60049
510.337,-755.069,60004
510.145,-762.411,60035
509.954,-769.758,60027
523.993,-244.396,59999
523.801,-251.36,60032
523.61,-258.329,59954
523.419,-265.304,60072
523.228,-272.283,60047
523.037,-279.267,59953
522.846,-286.257,59955
522.655,-293.252,59971
522.463,-300.251,60042
522.272,-307.256,60100
522.081,-314.266,60070
521.89,-321.282,60321
521.699,-328.302,60228
521.508,-335.327,60330
521.317,-342.358,60181
521.125,-349.394,60204
520.934,-356.435,60180
520.743,-363.481,60157
520.552,-370.532,60103
520.361,-377.589,60144
520.17,-384.65,60141
519.979,-391.717,61876
519.787,-398.789,60066
519.596,-405.866,60008
519.405,-412.949,60124
519.214,-420.037,60107
519.023,-427.129,60111
518.832,-434.228,59964
518.641,-441.331,60072
518.449,-448.439,60105
518.258,-455.553,60085
518.067,-462.672,60000
517.876,-469.797,59994
517.685,-476.926,60075
517.494,-484.061,60027
517.303,-491.201,60087
517.111,-498.347,60042
516.92,-505.497,60135
516.729,-512.653,60812
516.538,-519.815,65358
516.347,-526.981,60360
516.156,-534.153,60093
515.965,-541.33,59992
515.774,-548.513,60009
515.582,-555.701,60082
515.391,-562.894,60019
515.2,-570.092,60079
515.009,-577.296,59992
514.818,-584.505,60028
514.627,-591.72,60058
514.436,-598.94,60086
514.244,-606.165,59981
514.053,-613.396,60112
513.862,-620.632,60052
513.671,-627.873,60076
513.48,-635.12,60061
513.289,-642.372,60000
513.098,-649.63,60024
512.906,-656.893,59986
512.715,-664.162,59895
512.524,-671.435,60033
512.333,-678.715,60005
512.142,-685.999,60052
511.951,-693.29,60051
511.76,-700.585,59995
511.568,-707.886,59980
511.377,-715.193,59967
511.186,-722.505,60101
510.995,-729.822,60073
510.804,-737.145,60022
510.613,-744.474,60008
510.422,-751.808,60045
510.23,-759.147,60144
510.039,-766.492,59932
509.901,-771.8,60037