Folder: flash_scratch/tomke/20240809_Si_on_TiO2/20240809/raw_data (part 6)

File: Si_onTiO2_60mA_30mW_30sec_5acc_545nm.txt
Wavelength(nm), Raman shift(cm^-1), Intensity(counts)
553.364,768.549,96485
553.077,759.175,96885
552.79,749.791,96842
552.503,740.397,95985
552.216,730.994,95809
551.929,721.58,96038
551.642,712.157,96031
551.356,702.724,96100
551.069,693.282,95215
550.782,683.829,95439
550.495,674.367,95509
550.208,664.894,95646
549.921,655.412,94897
549.634,645.92,94980
549.347,636.418,95078
549.06,626.906,94797
548.773,617.385,94999
548.486,607.853,94400
548.2,598.311,93573
547.913,588.759,92982
547.626,579.197,92562
547.339,569.626,91861
547.052,560.044,91687
546.765,550.452,91463
546.478,540.85,91581
546.191,531.238,90922
545.904,521.616,91158
545.617,511.983,93759
545.331,502.341,104017
545.044,492.688,94705
544.757,483.026,90955
544.47,473.353,90225
544.183,463.67,89751
543.896,453.976,89180
543.609,444.273,88564
543.322,434.559,88465
543.035,424.835,88073
542.748,415.1,88329
542.462,405.356,88135
542.175,395.601,87843
541.888,385.836,87292
541.601,376.06,87023
541.314,366.274,86712
541.027,356.478,86889
540.74,346.671,86674
540.453,336.854,85866
540.166,327.026,84868
539.879,317.188,84927
539.593,307.339,85616
539.306,297.48,84991
539.019,287.611,83043
538.732,277.731,82174
538.445,267.84,76768
538.158,257.939,65451
537.871,248.028,61821
537.584,238.105,61325
537.297,228.172,61156
537.01,218.229,61008
536.723,208.275,61057
553.152,761.621,99297
552.865,752.24,99443
552.578,742.849,99083
552.291,733.448,98940
552.004,724.037,98818
551.717,714.616,98852
551.43,705.186,98587
551.143,695.746,99047
550.857,686.296,98079
550.57,676.836,98644
550.283,667.366,97693
549.996,657.887,97406
549.709,648.397,97481
549.422,638.898,97728
549.135,629.389,97685
548.848,619.869,97339
548.561,610.34,97096
548.274,600.801,96826
547.988,591.252,95745
547.701,581.693,94783
547.414,572.124,94226
547.127,562.544,93842
546.84,552.955,93967
546.553,543.356,93947
546.266,533.746,93661
545.979,524.127,93450
545.692,514.497,94405
545.405,504.857,103597
545.119,495.207,98998
544.832,485.547,94010
544.545,475.877,92938
544.258,466.197,92009
543.971,456.506,91520
543.684,446.805,90990
543.397,437.094,90295
543.11,427.373,90492
542.823,417.641,90540
542.536,407.899,90659
542.249,398.147,90394
541.963,388.384,89768
541.676,378.611,89359
541.389,368.828,88729
541.102,359.034,88537
540.815,349.23,88473
540.528,339.416,87644
540.241,329.591,86500
539.954,319.755,86575
539.667,309.91,87315
539.38,300.053,87311
539.094,290.186,85059
538.807,280.309,83912
538.52,270.421,80942
538.233,260.523,68286
537.946,250.614,62256
537.659,240.695,61444
537.372,230.765,61175
537.085,220.824,61146
536.798,210.873,61186
553.227,764.067,100000
552.94,754.688,100177
552.653,745.299,100063
552.366,735.901,99504
552.079,726.493,99253
551.792,717.075,99095
551.505,707.647,98930
551.218,698.21,99462
550.931,688.762,98792
550.644,679.305,98778
550.358,669.838,98467
550.071,660.361,98205
549.784,650.874,98286
549.497,641.377,98048
549.21,631.87,98566
548.923,622.354,98292
548.636,612.827,97587
548.349,603.291,97130
548.062,593.744,96459
547.775,584.187,95934
547.489,574.621,95273
547.202,565.044,94966
546.915,555.458,94845
546.628,545.861,94247
546.341,536.254,94398
546.054,526.637,94020
545.767,517.01,94628
545.48,507.373,101126
545.193,497.726,102670
544.906,488.068,95432
544.62,478.401,93574
544.333,468.723,92775
544.046,459.035,92010
543.759,449.337,91179
543.472,439.628,90563
543.185,429.91,90785
542.898,420.181,91230
542.611,410.441,91107
542.324,400.692,90996
542.037,390.932,90213
541.751,381.162,90217
541.464,371.381,89446
541.177,361.59,89319
540.89,351.789,89251
540.603,341.977,88415
540.316,332.155,87547
540.029,322.322,87499
539.742,312.479,87612
539.455,302.625,87388
539.168,292.761,86458
538.881,282.887,84314
538.595,273.002,83306
538.308,263.106,71536
538.021,253.2,63079
537.734,243.283,61510
537.447,233.356,61232
537.16,223.418,61106
536.873,213.47,61235
553.301,766.512,101471
553.015,757.136,101088
552.728,747.75,101075
552.441,738.354,100759
552.154,728.948,100455
551.867,719.533,100510
551.58,710.107,100212
551.293,700.672,100141
551.006,691.228,100372
550.719,681.773,99913
550.432,672.308,99578
550.146,662.834,99509
549.859,653.35,99394
549.572,643.855,99498
549.285,634.351,99106
548.998,624.837,99503
548.711,615.313,99051
548.424,605.779,98331
548.137,596.235,97633
547.85,586.681,96758
547.563,577.117,96064
547.277,567.543,95695
546.99,557.959,95741
546.703,548.365,95488
546.416,538.761,95250
546.129,529.147,94942
545.842,519.523,95178
545.555,509.888,99102
545.268,500.243,107182
544.981,490.589,97160
544.694,480.924,94615
544.407,471.249,93500
544.121,461.563,93328
543.834,451.868,92293
543.547,442.162,91769
543.26,432.446,91550
542.973,422.72,91510
542.686,412.983,91393
542.399,403.236,92233
542.112,393.479,91067
541.825,383.711,90638
541.538,373.933,90226
541.252,364.145,90583
540.965,354.347,90361
540.678,344.537,89711
540.391,334.718,88513
540.104,324.888,87938
539.817,315.048,87709
539.53,305.197,88333
539.243,295.336,87800
538.956,285.464,84992
538.669,275.582,84846
538.383,265.689,75659
538.096,255.785,64418
537.809,245.871,61747
537.522,235.947,61390
537.235,226.012,61290
536.948,216.066,61197
536.661,206.11,61083
553.089,759.583,102641
552.802,750.199,102506
552.516,740.806,102081
552.229,731.403,102068
551.942,721.99,101810
551.655,712.567,101920
551.368,703.135,101704
551.081,693.692,101445
550.794,684.24,101459
550.507,674.778,101375
550.22,665.306,100972
549.933,655.825,100288
549.647,646.333,100661
549.36,636.832,100413
549.073,627.32,100799
548.786,617.799,100449
548.499,608.267,99654
548.212,598.726,99385
547.925,589.175,99057
547.638,579.613,97796
547.351,570.042,96927
547.064,560.461,97039
546.778,550.869,97152
546.491,541.268,96299
546.204,531.656,96158
545.917,522.034,96230
545.63,512.402,97910
545.343,502.76,108414
545.056,493.108,99929
544.769,483.446,96014
544.482,473.774,94952
544.195,464.091,94798
543.909,454.398,93608
543.622,444.695,92533
543.335,434.981,92484
543.048,425.258,92858
542.761,415.524,92743
542.474,405.78,92518
542.187,396.025,92386
541.9,386.26,91838
541.613,376.485,91310
541.326,366.7,91210
541.04,356.904,91142
540.753,347.097,90805
540.466,337.281,89817
540.179,327.453,88500
539.892,317.616,89315
539.605,307.768,89249
539.318,297.909,88838
539.031,288.04,86508
538.744,278.161,85938
538.457,268.271,79858
538.17,258.37,66514
537.884,248.459,62084
537.597,238.537,61374
537.31,228.605,61290
537.023,218.662,61095
536.736,208.708,61159
536.661,206.11,61059

File: Si_onTiO2_60mA_30mW_30sec_5acc_545nm_bg.txt
Wavelength(nm), Raman shift(cm^-1), Intensity(counts)
553.364,768.549,91315
553.077,759.175,91703
552.79,749.791,90926
552.503,740.397,91181
552.216,730.994,91041
551.929,721.58,90642
551.642,712.157,91173
551.356,702.724,90835
551.069,693.282,90903
550.782,683.829,90423
550.495,674.367,90331
550.208,664.894,90107
549.921,655.412,89843
549.634,645.92,89691
549.347,636.418,89813
549.06,626.906,90108
548.773,617.385,89931
548.486,607.853,89187
548.2,598.311,88398
547.913,588.759,87744
547.626,579.197,87517
547.339,569.626,87504
547.052,560.044,87090
546.765,550.452,86669
546.478,540.85,86555
546.191,531.238,85949
545.904,521.616,85111
545.617,511.983,84671
545.331,502.341,84546
545.044,492.688,85125
544.757,483.026,84551
544.47,473.353,84727
544.183,463.67,84784
543.896,453.976,84031
543.609,444.273,84074
543.322,434.559,83542
543.035,424.835,83914
542.748,415.1,83196
542.462,405.356,83729
542.175,395.601,83230
541.888,385.836,82829
541.601,376.06,82273
541.314,366.274,82350
541.027,356.478,81845
540.74,346.671,81653
540.453,336.854,80910
540.166,327.026,80323
539.879,317.188,80296
539.593,307.339,80364
539.306,297.48,79711
539.019,287.611,77811
538.732,277.731,77118
538.445,267.84,73062
538.158,257.939,64275
537.871,248.028,61577
537.584,238.105,61108
537.297,228.172,60833
537.01,218.229,60916
536.723,208.275,60840
553.152,761.621,92180
552.865,752.24,92455
552.578,742.849,91760
552.291,733.448,91937
552.004,724.037,91742
551.717,714.616,91286
551.43,705.186,91565
551.143,695.746,91862
550.857,686.296,91293
550.57,676.836,90996
550.283,667.366,90970
549.996,657.887,90597
549.709,648.397,90617
549.422,638.898,90719
549.135,629.389,90332
548.848,619.869,90478
548.561,610.34,90123
548.274,600.801,89043
547.988,591.252,89134
547.701,581.693,88319
547.414,572.124,87552
547.127,562.544,87586
546.84,552.955,87204
546.553,543.356,87245
546.266,533.746,86701
545.979,524.127,86342
545.692,514.497,85033
545.405,504.857,85529
545.119,495.207,85207
544.832,485.547,85241
544.545,475.877,85218
544.258,466.197,85228
543.971,456.506,85003
543.684,446.805,84560
543.397,437.094,84303
543.11,427.373,83904
542.823,417.641,83975
542.536,407.899,84054
542.249,398.147,84097
541.963,388.384,83516
541.676,378.611,83145
541.389,368.828,82966
541.102,359.034,82335
540.815,349.23,82185
540.528,339.416,81864
540.241,329.591,81119
539.954,319.755,80509
539.667,309.91,80822
539.38,300.053,80334
539.094,290.186,78528
538.807,280.309,77643
538.52,270.421,75942
538.233,260.523,66263
537.946,250.614,61870
537.659,240.695,61187
537.372,230.765,61052
537.085,220.824,60873
536.798,210.873,60887
553.227,764.067,91958
552.94,754.688,91690
552.653,745.299,91363
552.366,735.901,91314
552.079,726.493,91253
551.792,717.075,91356
551.505,707.647,90839
551.218,698.21,90861
550.931,688.762,90983
550.644,679.305,90591
550.358,669.838,90242
550.071,660.361,90106
549.784,650.874,90250
549.497,641.377,90043
549.21,631.87,90426
548.923,622.354,90127
548.636,612.827,89541
548.349,603.291,89502
548.062,593.744,88384
547.775,584.187,87901
547.489,574.621,87728
547.202,565.044,87205
546.915,555.458,86990
546.628,545.861,86605
546.341,536.254,86226
546.054,526.637,85623
545.767,517.01,85784
545.48,507.373,85050
545.193,497.726,84646
544.906,488.068,84933
544.62,478.401,84889
544.333,468.723,84959
544.046,459.035,84711
543.759,449.337,84223
543.472,439.628,83804
543.185,429.91,83532
542.898,420.181,83504
542.611,410.441,83544
542.324,400.692,83373
542.037,390.932,83402
541.751,381.162,82556
541.464,371.381,82349
541.177,361.59,110208
540.89,351.789,82236
540.603,341.977,81506
540.316,332.155,80680
540.029,322.322,79813
539.742,312.479,80749
539.455,302.625,80131
539.168,292.761,78857
538.881,282.887,77420
538.595,273.002,76913
538.308,263.106,68293
538.021,253.2,62340
537.734,243.283,61389
537.447,233.356,61011
537.16,223.418,60967
536.873,213.47,60944
553.301,766.512,92823
553.015,757.136,93088
552.728,747.75,92581
552.441,738.354,92153
552.154,728.948,92310
551.867,719.533,92700
551.58,710.107,92195
551.293,700.672,92498
551.006,691.228,92134
550.719,681.773,92275
550.432,672.308,92019
550.146,662.834,91209
549.859,653.35,91003
549.572,643.855,91414
549.285,634.351,90946
548.998,624.837,91010
548.711,615.313,90987
548.424,605.779,90692
548.137,596.235,89930
547.85,586.681,88985
547.563,577.117,88826
547.277,567.543,88440
546.99,557.959,88494
546.703,548.365,88328
546.416,538.761,87660
546.129,529.147,87014
545.842,519.523,86451
545.555,509.888,86210
545.268,500.243,85853
544.981,490.589,85867
544.694,480.924,86012
544.407,471.249,85430
544.121,461.563,89134
543.834,451.868,85288
543.547,442.162,84812
543.26,432.446,84768
542.973,422.72,84821
542.686,412.983,84449
542.399,403.236,84814
542.112,393.479,84123
541.825,383.711,84025
541.538,373.933,83259
541.252,364.145,82869
540.965,354.347,83160
540.678,344.537,83004
540.391,334.718,81679
540.104,324.888,80895
539.817,315.048,81086
539.53,305.197,80906
539.243,295.336,80059
538.956,285.464,78058
538.669,275.582,78193
538.383,265.689,71608
538.096,255.785,63341
537.809,245.871,61330
537.522,235.947,85927
537.235,226.012,60971
536.948,216.066,60938
536.661,206.11,60880
553.089,759.583,92972
552.802,750.199,92282
552.516,740.806,92090
552.229,731.403,92200
551.942,721.99,92174
551.655,712.567,91939
551.368,703.135,92035
551.081,693.692,92165
550.794,684.24,92220
550.507,674.778,91673
550.22,665.306,91396
549.933,655.825,91215
549.647,646.333,90923
549.36,636.832,91244
549.073,627.32,91121
548.786,617.799,91249
548.499,608.267,90533
548.212,598.726,89970
547.925,589.175,89137
547.638,579.613,89022
547.351,570.042,88150
547.064,560.461,88145
546.778,550.869,87812
546.491,541.268,87480
546.204,531.656,87258
545.917,522.034,86389
545.63,512.402,85923
545.343,502.76,86054
545.056,493.108,85580
544.769,483.446,85678
544.482,473.774,85704
544.195,464.091,85513
543.909,454.398,85258
543.622,444.695,85011
543.335,434.981,84476
543.048,425.258,84617
542.761,415.524,84407
542.474,405.78,84502
542.187,396.025,84436
541.9,386.26,83758
541.613,376.485,83007
541.326,366.7,83183
541.04,356.904,83076
540.753,347.097,82672
540.466,337.281,81589
540.179,327.453,80957
539.892,317.616,80991
539.605,307.768,81221
539.318,297.909,80440
539.031,288.04,78597
538.744,278.161,78260
538.457,268.271,73939
538.17,258.37,64670
537.884,248.459,61652
537.597,238.537,61161
537.31,228.605,61104
537.023,218.662,60959
536.736,208.708,61040
536.661,206.11,61096

File: Si_onTiO2_70mA_30mW_30sec_5acc_517nm.txt
Wavelength(nm), Raman shift(cm^-1), Intensity(counts)
525.364,-194.586,72639
525.077,-204.986,73479
524.79,-215.398,73564
524.503,-225.821,73578
524.216,-236.256,73849
523.929,-246.702,74164
523.642,-257.159,75542
523.356,-267.628,84435
523.069,-278.109,108293
522.782,-288.6,122673
522.495,-299.104,125445
522.208,-309.619,125277
521.921,-320.145,124312
521.634,-330.684,122867
521.347,-341.233,122287
521.06,-351.795,121061
520.773,-362.368,119556
520.486,-372.952,117746
520.2,-383.548,117495
519.913,-394.156,116386
519.626,-404.776,115694
519.339,-415.408,114150
519.052,-426.051,113862
518.765,-436.706,111722
518.478,-447.373,110695
518.191,-458.051,109888
517.904,-468.742,109942
517.617,-479.444,109370
517.331,-490.158,111311
517.044,-500.884,117089
516.757,-511.622,109389
516.47,-522.372,106925
516.183,-533.134,106268
515.896,-543.907,105811
515.609,-554.693,105740
515.322,-565.491,104957
515.035,-576.301,104225
514.748,-587.123,103453
514.462,-597.957,103722
514.175,-608.803,102941
513.888,-619.661,102348
513.601,-630.531,101687
513.314,-641.413,100963
513.027,-652.308,100454
512.74,-663.215,99807
512.453,-674.134,98867
512.166,-685.065,97867
511.879,-696.008,96888
511.593,-706.964,96621
511.306,-717.932,95655
511.019,-728.913,95358
510.732,-739.905,94708
510.445,-750.91,93766
510.158,-761.928,93082
509.871,-772.958,92218
509.584,-784,91396
509.297,-795.055,90858
509.01,-806.122,90117
508.723,-817.201,89843
525.152,-202.272,72914
524.865,-212.681,73304
524.578,-223.101,73527
524.291,-233.532,73705
524.004,-243.976,74190
523.717,-254.43,75228
523.43,-264.896,80777
523.143,-275.373,101810
522.857,-285.862,121102
522.57,-296.363,125563
522.283,-306.875,125575
521.996,-317.398,125284
521.709,-327.933,123977
521.422,-338.48,122840
521.135,-349.038,122029
520.848,-359.608,120463
520.561,-370.19,119424
520.274,-380.783,118249
519.988,-391.388,117183
519.701,-402.005,117172
519.414,-412.633,116435
519.127,-423.273,114057
518.84,-433.925,113467
518.553,-444.589,111019
518.266,-455.264,111075
517.979,-465.952,110384
517.692,-476.651,110411
517.405,-487.362,111493
517.119,-498.085,117474
516.832,-508.82,111467
516.545,-519.566,108531
516.258,-530.325,107106
515.971,-541.096,106929
515.684,-551.878,105747
515.397,-562.673,105423
515.11,-573.48,105462
514.823,-584.298,105236
514.536,-595.129,104415
514.249,-605.972,103885
513.963,-616.827,102710
513.676,-627.694,102296
513.389,-638.573,101877
513.102,-649.465,101403
512.815,-660.368,100145
512.528,-671.284,99816
512.241,-682.212,98489
511.954,-693.152,98140
511.667,-704.105,97032
511.38,-715.07,96352
511.094,-726.047,95846
510.807,-737.036,95128
510.52,-748.038,94451
510.233,-759.052,93787
509.946,-770.079,92641
509.659,-781.118,91846
509.372,-792.17,91253
509.085,-803.233,90994
508.798,-814.31,90280
525.227,-199.558,72895
524.94,-209.964,73064
524.653,-220.381,73324
524.366,-230.81,73277
524.079,-241.25,73866
523.792,-251.702,74371
523.505,-262.165,78113
523.218,-272.639,94385
522.931,-283.125,116399
522.644,-293.622,123980
522.358,-304.131,123968
522.071,-314.652,123295
521.784,-325.184,122726
521.497,-335.728,121193
521.21,-346.283,120772
520.923,-356.85,120154
520.636,-367.428,118382
520.349,-378.019,117402
520.062,-388.62,116461
519.775,-399.234,115747
519.489,-409.859,114715
519.202,-420.496,113933
518.915,-431.145,112215
518.628,-441.806,110492
518.341,-452.478,110333
518.054,-463.163,109967
517.767,-473.859,108927
517.48,-484.567,108921
517.193,-495.286,114350
516.906,-506.018,112156
516.62,-516.762,107141
516.333,-527.517,106204
516.046,-538.285,106043
515.759,-549.064,105213
515.472,-559.856,104454
515.185,-570.659,104188
514.898,-581.475,103422
514.611,-592.303,103600
514.324,-603.142,102995
514.037,-613.994,102369
513.751,-624.858,101479
513.464,-635.734,100933
513.177,-646.622,100210
512.89,-657.523,99307
512.603,-668.435,98999
512.316,-679.36,98114
512.029,-690.297,97275
511.742,-701.247,96143
511.455,-712.208,95732
511.168,-723.182,95208
510.881,-734.168,94446
510.595,-745.167,93624
510.308,-756.178,93343
510.021,-767.201,91935
509.734,-778.237,91052
509.447,-789.285,90922
509.16,-800.346,90073
508.873,-811.419,89316
525.301,-196.846,72861
525.015,-207.249,73135
524.728,-217.663,73574
524.441,-228.088,73838
524.154,-238.526,73912
523.867,-248.974,74573
523.58,-259.434,76690
523.293,-269.905,88548
523.006,-280.388,112287
522.719,-290.883,123963
522.432,-301.389,125819
522.146,-311.906,124842
521.859,-322.435,123784
521.572,-332.976,122674
521.285,-343.528,122102
520.998,-354.092,120686
520.711,-364.668,119448
520.424,-375.255,117871
520.137,-385.854,117533
519.85,-396.464,116919
519.563,-407.086,115973
519.277,-417.72,114699
518.99,-428.366,112989
518.703,-439.024,111570
518.416,-449.693,110705
518.129,-460.374,110546
517.842,-471.067,110093
517.555,-481.772,109591
517.268,-492.489,112611
516.981,-503.217,115739
516.694,-513.958,108516
516.407,-524.71,106996
516.121,-535.475,106569
515.834,-546.251,105917
515.547,-557.039,105062
515.26,-567.84,104765
514.973,-578.652,104695
514.686,-589.477,104399
514.399,-600.313,103509
514.112,-611.162,102592
513.825,-622.023,102334
513.538,-632.896,101851
513.252,-643.781,100966
512.965,-654.678,100483
512.678,-665.587,99690
512.391,-676.509,98598
512.104,-687.443,97999
511.817,-698.389,97430
511.53,-709.347,95993
511.243,-720.318,95629
510.956,-731.301,95091
510.669,-742.297,94496
510.383,-753.304,93293
510.096,-764.325,92930
509.809,-775.357,92328
509.522,-786.402,91658
509.235,-797.459,90840
508.948,-808.529,89584
508.661,-819.612,89111
525.089,-204.534,73167
524.802,-214.945,73559
524.516,-225.368,73737
524.229,-235.802,73854
523.942,-246.247,74252
523.655,-256.704,76074
523.368,-267.173,83953
523.081,-277.653,108074
522.794,-288.144,123173
522.507,-298.647,125913
522.22,-309.161,125573
521.933,-319.687,125380
521.647,-330.225,123721
521.36,-340.774,123329
521.073,-351.335,122261
520.786,-361.908,120552
520.499,-372.492,119461
520.212,-383.088,118452
519.925,-393.695,117474
519.638,-404.314,117064
519.351,-414.945,115916
519.064,-425.588,114614
518.778,-436.242,112540
518.491,-446.909,111757
518.204,-457.587,111166
517.917,-468.277,110747
517.63,-478.978,110618
517.343,-489.692,112506
517.056,-500.417,117955
516.769,-511.155,110539
516.482,-521.904,108606
516.195,-532.665,107911
515.909,-543.439,106683
515.622,-554.224,106182
515.335,-565.021,105513
515.048,-575.831,105114
514.761,-586.652,104553
514.474,-597.485,104611
514.187,-608.331,103826
513.9,-619.188,103251
513.613,-630.058,102329
513.326,-640.94,101661
513.04,-651.834,101340
512.753,-662.74,100077
512.466,-673.659,99777
512.179,-684.589,98244
511.892,-695.532,97957
511.605,-706.488,97220
511.318,-717.455,96293
511.031,-728.435,95773
510.744,-739.427,95437
510.457,-750.432,94675
510.17,-761.448,93589
509.884,-772.478,92838
509.597,-783.52,92196
509.31,-794.574,91459
509.023,-805.64,90764
508.736,-816.719,90078
508.661,-819.612,89889