Folder: flash_scratch/tomke/20240809_Si_on_TiO2/20240809/raw_data (part 7)

File: Si_onTiO2_70mA_30mW_30sec_5acc_517nm_bg.txt
Wavelength(nm), Raman shift(cm^-1), Intensity(counts)
525.364,-194.586,71342
525.077,-204.986,71941
524.79,-215.398,72394
524.503,-225.821,72759
524.216,-236.256,72663
523.929,-246.702,73318
523.642,-257.159,74471
523.356,-267.628,81845
523.069,-278.109,101660
522.782,-288.6,113846
522.495,-299.104,115991
522.208,-309.619,115856
521.921,-320.145,115715
521.634,-330.684,114793
521.347,-341.233,114497
521.06,-351.795,113084
520.773,-362.368,112084
520.486,-372.952,111341
520.2,-383.548,110309
519.913,-394.156,109405
519.626,-404.776,108996
519.339,-415.408,107973
519.052,-426.051,106645
518.765,-436.706,105051
518.478,-447.373,104146
518.191,-458.051,103166
517.904,-468.742,103111
517.617,-479.444,102424
517.331,-490.158,101418
517.044,-500.884,101217
516.757,-511.622,100698
516.47,-522.372,100527
516.183,-533.134,100332
515.896,-543.907,100307
515.609,-554.693,99860
515.322,-565.491,98989
515.035,-576.301,98324
514.748,-587.123,98638
514.462,-597.957,97727
514.175,-608.803,97660
513.888,-619.661,96980
513.601,-630.531,96139
513.314,-641.413,95161
513.027,-652.308,95238
512.74,-663.215,94796
512.453,-674.134,94094
512.166,-685.065,92791
511.879,-696.008,92717
511.593,-706.964,91644
511.306,-717.932,91264
511.019,-728.913,90674
510.732,-739.905,90528
510.445,-750.91,89656
510.158,-761.928,88548
509.871,-772.958,87964
509.584,-784,87561
509.297,-795.055,86672
509.01,-806.122,86258
508.723,-817.201,85853
525.152,-202.272,72048
524.865,-212.681,72557
524.578,-223.101,72497
524.291,-233.532,72930
524.004,-243.976,73172
523.717,-254.43,73890
523.43,-264.896,78817
523.143,-275.373,97081
522.857,-285.862,113058
522.57,-296.363,117074
522.283,-306.875,117411
521.996,-317.398,116729
521.709,-327.933,115582
521.422,-338.48,115348
521.135,-349.038,114278
520.848,-359.608,113200
520.561,-370.19,112527
520.274,-380.783,111220
519.988,-391.388,110466
519.701,-402.005,109953
519.414,-412.633,109150
519.127,-423.273,107977
518.84,-433.925,106732
518.553,-444.589,105377
518.266,-455.264,104524
517.979,-465.952,103950
517.692,-476.651,103432
517.405,-487.362,102369
517.119,-498.085,102192
516.832,-508.82,101350
516.545,-519.566,101807
516.258,-530.325,100797
515.971,-541.096,100611
515.684,-551.878,100058
515.397,-562.673,99647
515.11,-573.48,99804
514.823,-584.298,99173
514.536,-595.129,98652
514.249,-605.972,98559
513.963,-616.827,97818
513.676,-627.694,97401
513.389,-638.573,96593
513.102,-649.465,96406
512.815,-660.368,95619
512.528,-671.284,94846
512.241,-682.212,94124
511.954,-693.152,93149
511.667,-704.105,92852
511.38,-715.07,92291
511.094,-726.047,91796
510.807,-737.036,90625
510.52,-748.038,90667
510.233,-759.052,89956
509.946,-770.079,88579
509.659,-781.118,88049
509.372,-792.17,87333
509.085,-803.233,86721
508.798,-814.31,86395
525.227,-199.558,72118
524.94,-209.964,72356
524.653,-220.381,72718
524.366,-230.81,72866
524.079,-241.25,73313
523.792,-251.702,73997
523.505,-262.165,77161
523.218,-272.639,91345
522.931,-283.125,111501
522.644,-293.622,117745
522.358,-304.131,118282
522.071,-314.652,117899
521.784,-325.184,117151
521.497,-335.728,116897
521.21,-346.283,115377
520.923,-356.85,114761
520.636,-367.428,113482
520.349,-378.019,112840
520.062,-388.62,112077
519.775,-399.234,110817
519.489,-409.859,109984
519.202,-420.496,108623
518.915,-431.145,107531
518.628,-441.806,106805
518.341,-452.478,105771
518.054,-463.163,104897
517.767,-473.859,104237
517.48,-484.567,103803
517.193,-495.286,103517
516.906,-506.018,103001
516.62,-516.762,102451
516.333,-527.517,104741
516.046,-538.285,102016
515.759,-549.064,101024
515.472,-559.856,100944
515.185,-570.659,100242
514.898,-581.475,100497
514.611,-592.303,100206
514.324,-603.142,99102
514.037,-613.994,98724
513.751,-624.858,98039
513.464,-635.734,97264
513.177,-646.622,97153
512.89,-657.523,96042
512.603,-668.435,95536
512.316,-679.36,94948
512.029,-690.297,94083
511.742,-701.247,93434
511.455,-712.208,92760
511.168,-723.182,92390
510.881,-734.168,91732
510.595,-745.167,91134
510.308,-756.178,90237
510.021,-767.201,89696
509.734,-778.237,88809
509.447,-789.285,88286
509.16,-800.346,87283
508.873,-811.419,87230
525.301,-196.846,72367
525.015,-207.249,72584
524.728,-217.663,73013
524.441,-228.088,73175
524.154,-238.526,73367
523.867,-248.974,73635
523.58,-259.434,75575
523.293,-269.905,86541
523.006,-280.388,107833
522.719,-290.883,117960
522.432,-301.389,118907
522.146,-311.906,119019
521.859,-322.435,117944
521.572,-332.976,117660
521.285,-343.528,117615
520.998,-354.092,115747
520.711,-364.668,114384
520.424,-375.255,113321
520.137,-385.854,112539
519.85,-396.464,112507
519.563,-407.086,111859
519.277,-417.72,109950
518.99,-428.366,109091
518.703,-439.024,107432
518.416,-449.693,107077
518.129,-460.374,106125
517.842,-471.067,105234
517.555,-481.772,104640
517.268,-492.489,103939
516.981,-503.217,103764
516.694,-513.958,103396
516.407,-524.71,102806
516.121,-535.475,102876
515.834,-546.251,101985
515.547,-557.039,101833
515.26,-567.84,101379
514.973,-578.652,100719
514.686,-589.477,100749
514.399,-600.313,99716
514.112,-611.162,99754
513.825,-622.023,98788
513.538,-632.896,98342
513.252,-643.781,97259
512.965,-654.678,97478
512.678,-665.587,96248
512.391,-676.509,95890
512.104,-687.443,94870
511.817,-698.389,94016
511.53,-709.347,93741
511.243,-720.318,93192
510.956,-731.301,92585
510.669,-742.297,91697
510.383,-753.304,90881
510.096,-764.325,90104
509.809,-775.357,89678
509.522,-786.402,89208
509.235,-797.459,88040
508.948,-808.529,87639
508.661,-819.612,86877
525.089,-204.534,72744
524.802,-214.945,72862
524.516,-225.368,73148
524.229,-235.802,73510
523.942,-246.247,73663
523.655,-256.704,75285
523.368,-267.173,82532
523.081,-277.653,104246
522.794,-288.144,117748
522.507,-298.647,120875
522.22,-309.161,120423
521.933,-319.687,119779
521.647,-330.225,118507
521.36,-340.774,118068
521.073,-351.335,117190
520.786,-361.908,116518
520.499,-372.492,114561
520.212,-383.088,113921
519.925,-393.695,113867
519.638,-404.314,112822
519.351,-414.945,111957
519.064,-425.588,110138
518.778,-436.242,109050
518.491,-446.909,107990
518.204,-457.587,107275
517.917,-468.277,106470
517.63,-478.978,105364
517.343,-489.692,105339
517.056,-500.417,104163
516.769,-511.155,104026
516.482,-521.904,103657
516.195,-532.665,103608
515.909,-543.439,103419
515.622,-554.224,103251
515.335,-565.021,102143
515.048,-575.831,101714
514.761,-586.652,101126
514.474,-597.485,100551
514.187,-608.331,100392
513.9,-619.188,100191
513.613,-630.058,99212
513.326,-640.94,98551
513.04,-651.834,98040
512.753,-662.74,97072
512.466,-673.659,96921
512.179,-684.589,95732
511.892,-695.532,95718
511.605,-706.488,94351
511.318,-717.455,94164
511.031,-728.435,93108
510.744,-739.427,92638
510.457,-750.432,91857
510.17,-761.448,91684
509.884,-772.478,90466
509.597,-783.52,89460
509.31,-794.574,89048
509.023,-805.64,88580
508.736,-816.719,87654
508.661,-819.612,87827

File: Si_onTiO2_80mA_30mW_30sec_5acc_517nm_bg.txt
Wavelength(nm), Raman shift(cm^-1), Intensity(counts)
525.364,-194.586,67573
525.077,-204.986,67844
524.79,-215.398,68209
524.503,-225.821,68058
524.216,-236.256,68224
523.929,-246.702,68309
523.642,-257.159,69295
523.356,-267.628,72696
523.069,-278.109,82974
522.782,-288.6,88587
522.495,-299.104,89674
522.208,-309.619,89342
521.921,-320.145,88878
521.634,-330.684,88399
521.347,-341.233,88018
521.06,-351.795,87818
520.773,-362.368,87177
520.486,-372.952,85987
520.2,-383.548,86167
519.913,-394.156,85583
519.626,-404.776,84859
519.339,-415.408,84470
519.052,-426.051,83742
518.765,-436.706,82762
518.478,-447.373,82260
518.191,-458.051,82261
517.904,-468.742,81733
517.617,-479.444,81085
517.331,-490.158,80638
517.044,-500.884,80496
516.757,-511.622,80363
516.47,-522.372,80304
516.183,-533.134,80297
515.896,-543.907,79842
515.609,-554.693,79885
515.322,-565.491,79127
515.035,-576.301,79221
514.748,-587.123,79043
514.462,-597.957,79138
514.175,-608.803,78615
513.888,-619.661,78419
513.601,-630.531,78002
513.314,-641.413,77995
513.027,-652.308,77517
512.74,-663.215,77165
512.453,-674.134,76541
512.166,-685.065,76677
511.879,-696.008,75857
511.593,-706.964,75837
511.306,-717.932,75674
511.019,-728.913,75251
510.732,-739.905,74927
510.445,-750.91,74483
510.158,-761.928,74530
509.871,-772.958,73978
509.584,-784,73743
509.297,-795.055,73344
509.01,-806.122,73259
508.723,-817.201,72734
525.152,-202.272,68185
524.865,-212.681,68581
524.578,-223.101,68693
524.291,-233.532,68985
524.004,-243.976,68986
523.717,-254.43,69422
523.43,-264.896,72164
523.143,-275.373,82156
522.857,-285.862,89980
522.57,-296.363,92182
522.283,-306.875,92151
521.996,-317.398,91626
521.709,-327.933,91810
521.422,-338.48,91047
521.135,-349.038,90411
520.848,-359.608,89894
520.561,-370.19,88995
520.274,-380.783,88562
519.988,-391.388,87959
519.701,-402.005,87709
519.414,-412.633,87196
519.127,-423.273,86423
518.84,-433.925,85504
518.553,-444.589,84718
518.266,-455.264,84096
517.979,-465.952,83654
517.692,-476.651,83255
517.405,-487.362,83066
517.119,-498.085,83087
516.832,-508.82,82342
516.545,-519.566,82200
516.258,-530.325,82401
515.971,-541.096,81681
515.684,-551.878,81949
515.397,-562.673,81306
515.11,-573.48,81077
514.823,-584.298,81129
514.536,-595.129,81234
514.249,-605.972,80502
513.963,-616.827,80121
513.676,-627.694,79905
513.389,-638.573,79495
513.102,-649.465,79143
512.815,-660.368,78846
512.528,-671.284,78884
512.241,-682.212,78352
511.954,-693.152,77912
511.667,-704.105,77326
511.38,-715.07,77223
511.094,-726.047,77069
510.807,-737.036,76593
510.52,-748.038,76472
510.233,-759.052,76068
509.946,-770.079,75255
509.659,-781.118,75281
509.372,-792.17,75055
509.085,-803.233,74417
508.798,-814.31,74518
525.227,-199.558,69052
524.94,-209.964,68778
524.653,-220.381,69103
524.366,-230.81,69548
524.079,-241.25,69627
523.792,-251.702,69819
523.505,-262.165,71766
523.218,-272.639,80452
522.931,-283.125,92412
522.644,-293.622,95568
522.358,-304.131,96450
522.071,-314.652,96117
521.784,-325.184,94744
521.497,-335.728,94536
521.21,-346.283,94236
520.923,-356.85,93610
520.636,-367.428,92531
520.349,-378.019,91872
520.062,-388.62,91489
519.775,-399.234,91332
519.489,-409.859,90572
519.202,-420.496,89406
518.915,-431.145,88783
518.628,-441.806,88070
518.341,-452.478,87571
518.054,-463.163,86989
517.767,-473.859,86439
517.48,-484.567,85835
517.193,-495.286,85231
516.906,-506.018,85033
516.62,-516.762,85433
516.333,-527.517,84699
516.046,-538.285,84642
515.759,-549.064,84612
515.472,-559.856,84329
515.185,-570.659,84279
514.898,-581.475,83904
514.611,-592.303,83233
514.324,-603.142,83306
514.037,-613.994,82945
513.751,-624.858,82418
513.464,-635.734,81963
513.177,-646.622,81756
512.89,-657.523,81383
512.603,-668.435,81134
512.316,-679.36,80716
512.029,-690.297,80173
511.742,-701.247,80101
511.455,-712.208,79642
511.168,-723.182,79179
510.881,-734.168,78754
510.595,-745.167,78577
510.308,-756.178,77835
510.021,-767.201,77485
509.734,-778.237,77286
509.447,-789.285,76920
509.16,-800.346,76588
508.873,-811.419,76384
525.301,-196.846,69231
525.015,-207.249,69405
524.728,-217.663,69665
524.441,-228.088,69711
524.154,-238.526,69716
523.867,-248.974,70026
523.58,-259.434,71599
523.293,-269.905,78165
523.006,-280.388,91014
522.719,-290.883,96611
522.432,-301.389,97469
522.146,-311.906,97439
521.859,-322.435,96884
521.572,-332.976,96140
521.285,-343.528,95960
520.998,-354.092,95029
520.711,-364.668,93997
520.424,-375.255,93283
520.137,-385.854,93271
519.85,-396.464,92562
519.563,-407.086,92276
519.277,-417.72,91006
518.99,-428.366,89833
518.703,-439.024,89256
518.416,-449.693,88811
518.129,-460.374,87750
517.842,-471.067,88301
517.555,-481.772,87071
517.268,-492.489,86824
516.981,-503.217,86422
516.694,-513.958,86025
516.407,-524.71,86342
516.121,-535.475,85693
515.834,-546.251,85738
515.547,-557.039,85448
515.26,-567.84,85236
514.973,-578.652,85059
514.686,-589.477,84858
514.399,-600.313,84434
514.112,-611.162,84241
513.825,-622.023,83894
513.538,-632.896,83495
513.252,-643.781,82413
512.965,-654.678,82711
512.678,-665.587,82268
512.391,-676.509,81483
512.104,-687.443,81572
511.817,-698.389,80904
511.53,-709.347,80684
511.243,-720.318,80130
510.956,-731.301,79756
510.669,-742.297,79710
510.383,-753.304,79144
510.096,-764.325,78637
509.809,-775.357,77976
509.522,-786.402,77484
509.235,-797.459,77290
508.948,-808.529,77021
508.661,-819.612,76807
525.089,-204.534,68790
524.802,-214.945,69449
524.516,-225.368,69253
524.229,-235.802,69672
523.942,-246.247,69813
523.655,-256.704,70710
523.368,-267.173,75158
523.081,-277.653,87716
522.794,-288.144,94903
522.507,-298.647,97144
522.22,-309.161,96528
521.933,-319.687,96285
521.647,-330.225,95510
521.36,-340.774,95436
521.073,-351.335,94625
520.786,-361.908,93644
520.499,-372.492,93004
520.212,-383.088,92451
519.925,-393.695,91900
519.638,-404.314,91676
519.351,-414.945,90701
519.064,-425.588,89499
518.778,-436.242,88946
518.491,-446.909,88478
518.204,-457.587,87858
517.917,-468.277,87435
517.63,-478.978,86485
517.343,-489.692,86425
517.056,-500.417,86380
516.769,-511.155,85883
516.482,-521.904,85371
516.195,-532.665,85517
515.909,-543.439,85134
515.622,-554.224,84830
515.335,-565.021,84588
515.048,-575.831,84676
514.761,-586.652,84365
514.474,-597.485,84077
514.187,-608.331,83607
513.9,-619.188,83402
513.613,-630.058,83156
513.326,-640.94,82662
513.04,-651.834,81963
512.753,-662.74,81495
512.466,-673.659,81439
512.179,-684.589,80869
511.892,-695.532,80807
511.605,-706.488,80470
511.318,-717.455,79637
511.031,-728.435,79248
510.744,-739.427,79471
510.457,-750.432,78898
510.17,-761.448,77851
509.884,-772.478,77952
509.597,-783.52,77570
509.31,-794.574,76707
509.023,-805.64,76613
508.736,-816.719,76425
508.661,-819.612,76095

File: Si_onTiO2_80mA_30mW_30sec_5acc_517nm_new.txt
Wavelength(nm), Raman shift(cm^-1), Intensity(counts)
525.364,-194.586,70484
525.077,-204.986,71201
524.79,-215.398,71200
524.503,-225.821,71599
524.216,-236.256,71662
523.929,-246.702,71774
523.642,-257.159,73109
523.356,-267.628,79883
523.069,-278.109,98778
522.782,-288.6,109254
522.495,-299.104,111048
522.208,-309.619,110563
521.921,-320.145,109590
521.634,-330.684,108903
521.347,-341.233,108191
521.06,-351.795,107198
520.773,-362.368,106491
520.486,-372.952,105342
520.2,-383.548,104570
519.913,-394.156,103914
519.626,-404.776,103304
519.339,-415.408,102230
519.052,-426.051,101307
518.765,-436.706,99751
518.478,-447.373,99416
518.191,-458.051,98959
517.904,-468.742,98178
517.617,-479.444,98411
517.331,-490.158,99817
517.044,-500.884,106509
516.757,-511.622,98325
516.47,-522.372,95941
516.183,-533.134,95983
515.896,-543.907,94833
515.609,-554.693,94603
515.322,-565.491,94137
515.035,-576.301,94154
514.748,-587.123,93872
514.462,-597.957,93562
514.175,-608.803,92800
513.888,-619.661,92254
513.601,-630.531,91713
513.314,-641.413,91332
513.027,-652.308,90427
512.74,-663.215,90318
512.453,-674.134,89886
512.166,-685.065,88917
511.879,-696.008,88477
511.593,-706.964,87942
511.306,-717.932,87790
511.019,-728.913,86899
510.732,-739.905,86895
510.445,-750.91,86127
510.158,-761.928,85293
509.871,-772.958,84819
509.584,-784,84170
509.297,-795.055,83898
509.01,-806.122,83361
508.723,-817.201,82584
525.152,-202.272,69255
524.865,-212.681,69610
524.578,-223.101,69693
524.291,-233.532,69868
524.004,-243.976,70150
523.717,-254.43,70698
523.43,-264.896,73953
523.143,-275.373,86124
522.857,-285.862,97335
522.57,-296.363,99248
522.283,-306.875,99428
521.996,-317.398,98629
521.709,-327.933,97741
521.422,-338.48,97398
521.135,-349.038,96742
520.848,-359.608,95874
520.561,-370.19,95422
520.274,-380.783,94096
519.988,-391.388,94106
519.701,-402.005,93375
519.414,-412.633,93024
519.127,-423.273,91833
518.84,-433.925,90828
518.553,-444.589,90229
518.266,-455.264,89288
517.979,-465.952,88994
517.692,-476.651,88867
517.405,-487.362,90065
517.119,-498.085,95852
516.832,-508.82,90876
516.545,-519.566,87573
516.258,-530.325,87124
515.971,-541.096,86543
515.684,-551.878,86334
515.397,-562.673,86060
515.11,-573.48,85616
514.823,-584.298,85415
514.536,-595.129,85414
514.249,-605.972,84808
513.963,-616.827,84039
513.676,-627.694,84010
513.389,-638.573,83600
513.102,-649.465,83432
512.815,-660.368,82995
512.528,-671.284,82497
512.241,-682.212,82166
511.954,-693.152,81648
511.667,-704.105,81223
511.38,-715.07,80843
511.094,-726.047,80415
510.807,-737.036,80343
510.52,-748.038,79577
510.233,-759.052,78851
509.946,-770.079,78713
509.659,-781.118,78250
509.372,-792.17,77896
509.085,-803.233,77616
508.798,-814.31,76784
525.227,-199.558,68468
524.94,-209.964,68799
524.653,-220.381,69032
524.366,-230.81,69285
524.079,-241.25,69227
523.792,-251.702,69745
523.505,-262.165,71521
523.218,-272.639,80332
522.931,-283.125,92117
522.644,-293.622,96386
522.358,-304.131,95823
522.071,-314.652,95119
521.784,-325.184,94455
521.497,-335.728,94294
521.21,-346.283,93152
520.923,-356.85,92337
520.636,-367.428,92046
520.349,-378.019,90990
520.062,-388.62,90927
519.775,-399.234,90272
519.489,-409.859,90400
519.202,-420.496,88912
518.915,-431.145,88016
518.628,-441.806,87391
518.341,-452.478,86458
518.054,-463.163,86548
517.767,-473.859,86468
517.48,-484.567,86649
517.193,-495.286,91476
516.906,-506.018,90880
516.62,-516.762,85366
516.333,-527.517,84739
516.046,-538.285,84054
515.759,-549.064,83602
515.472,-559.856,83332
515.185,-570.659,82959
514.898,-581.475,82989
514.611,-592.303,82792
514.324,-603.142,82380
514.037,-613.994,82021
513.751,-624.858,81902
513.464,-635.734,81202
513.177,-646.622,80654
512.89,-657.523,80610
512.603,-668.435,80216
512.316,-679.36,79653
512.029,-690.297,79617
511.742,-701.247,78952
511.455,-712.208,78839
511.168,-723.182,78568
510.881,-734.168,78339
510.595,-745.167,77573
510.308,-756.178,77461
510.021,-767.201,77006
509.734,-778.237,76328
509.447,-789.285,76427
509.16,-800.346,76044
508.873,-811.419,75621
525.301,-196.846,68309
525.015,-207.249,68841
524.728,-217.663,68855
524.441,-228.088,69047
524.154,-238.526,69031
523.867,-248.974,69459
523.58,-259.434,70625
523.293,-269.905,76446
523.006,-280.388,89556
522.719,-290.883,95039
522.432,-301.389,95184
522.146,-311.906,94207
521.859,-322.435,93998
521.572,-332.976,93253
521.285,-343.528,92669
520.998,-354.092,92573
520.711,-364.668,91415
520.424,-375.255,90423
520.137,-385.854,90107
519.85,-396.464,89931
519.563,-407.086,89439
519.277,-417.72,88449
518.99,-428.366,87599
518.703,-439.024,86492
518.416,-449.693,86063
518.129,-460.374,86035
517.842,-471.067,85572
517.555,-481.772,85834
517.268,-492.489,88494
516.981,-503.217,92675
516.694,-513.958,85744
516.407,-524.71,83946
516.121,-535.475,83675
515.834,-546.251,83434
515.547,-557.039,82793
515.26,-567.84,82587
514.973,-578.652,82314
514.686,-589.477,82722
514.399,-600.313,81786
514.112,-611.162,81467
513.825,-622.023,81483
513.538,-632.896,81105
513.252,-643.781,80439
512.965,-654.678,79926
512.678,-665.587,80168
512.391,-676.509,79546
512.104,-687.443,79170
511.817,-698.389,78672
511.53,-709.347,78486
511.243,-720.318,78107
510.956,-731.301,77687
510.669,-742.297,77527
510.383,-753.304,77177
510.096,-764.325,76500
509.809,-775.357,76386
509.522,-786.402,76016
509.235,-797.459,75664
508.948,-808.529,75193
508.661,-819.612,74853
525.089,-204.534,68672
524.802,-214.945,68617
524.516,-225.368,68860
524.229,-235.802,68867
523.942,-246.247,69306
523.655,-256.704,70174
523.368,-267.173,74534
523.081,-277.653,85995
522.794,-288.144,94182
522.507,-298.647,95226
522.22,-309.161,94645
521.933,-319.687,94591
521.647,-330.225,93814
521.36,-340.774,93370
521.073,-351.335,92742
520.786,-361.908,91638
520.499,-372.492,90816
520.212,-383.088,90387
519.925,-393.695,90089
519.638,-404.314,89278
519.351,-414.945,88963
519.064,-425.588,87993
518.778,-436.242,86931
518.491,-446.909,86333
518.204,-457.587,86014
517.917,-468.277,85891
517.63,-478.978,85680
517.343,-489.692,87208
517.056,-500.417,94012
516.769,-511.155,86501
516.482,-521.904,84437
516.195,-532.665,83410
515.909,-543.439,83478
515.622,-554.224,82938
515.335,-565.021,82796
515.048,-575.831,82537
514.761,-586.652,82484
514.474,-597.485,81862
514.187,-608.331,82056
513.9,-619.188,81310
513.613,-630.058,81035
513.326,-640.94,80493
513.04,-651.834,80070
512.753,-662.74,79770
512.466,-673.659,79948
512.179,-684.589,78989
511.892,-695.532,78653
511.605,-706.488,78338
511.318,-717.455,78003
511.031,-728.435,78280
510.744,-739.427,77357
510.457,-750.432,76955
510.17,-761.448,76745
509.884,-772.478,76563
509.597,-783.52,75977
509.31,-794.574,75675
509.023,-805.64,75510
508.736,-816.719,75054
508.661,-819.612,75004