Folder: flash_scratch/tomke/20240809_Si_on_TiO2/20240809/raw_data (part 5)

File: Si_onTiO2_50mA_30mW_30sec_5acc_517nm.txt
Wavelength(nm), Raman shift(cm^-1), Intensity(counts)
525.364,-194.586,63234
525.077,-204.986,63742
524.79,-215.398,63811
524.503,-225.821,63953
524.216,-236.256,63851
523.929,-246.702,64024
523.642,-257.159,64175
523.356,-267.628,65238
523.069,-278.109,68193
522.782,-288.6,70281
522.495,-299.104,70253
522.208,-309.619,69653
521.921,-320.145,79823
521.634,-330.684,69184
521.347,-341.233,68808
521.06,-351.795,68693
520.773,-362.368,68601
520.486,-372.952,68162
520.2,-383.548,68183
519.913,-394.156,67347
519.626,-404.776,67249
519.339,-415.408,67359
519.052,-426.051,66775
518.765,-436.706,66771
518.478,-447.373,66376
518.191,-458.051,66332
517.904,-468.742,66150
517.617,-479.444,66299
517.331,-490.158,67140
517.044,-500.884,73564
516.757,-511.622,68388
516.47,-522.372,66266
516.183,-533.134,65350
515.896,-543.907,65374
515.609,-554.693,65119
515.322,-565.491,65141
515.035,-576.301,64976
514.748,-587.123,65058
514.462,-597.957,64996
514.175,-608.803,64922
513.888,-619.661,64798
513.601,-630.531,64779
513.314,-641.413,64650
513.027,-652.308,64498
512.74,-663.215,64490
512.453,-674.134,64347
512.166,-685.065,64299
511.879,-696.008,64188
511.593,-706.964,64125
511.306,-717.932,64121
511.019,-728.913,63970
510.732,-739.905,63941
510.445,-750.91,63655
510.158,-761.928,63629
509.871,-772.958,63637
509.584,-784,63694
509.297,-795.055,63684
509.01,-806.122,63445
508.723,-817.201,63369
525.152,-202.272,63797
524.865,-212.681,63797
524.578,-223.101,63827
524.291,-233.532,63700
524.004,-243.976,63876
523.717,-254.43,64197
523.43,-264.896,64890
523.143,-275.373,67219
522.857,-285.862,69385
522.57,-296.363,70106
522.283,-306.875,69915
521.996,-317.398,69456
521.709,-327.933,69366
521.422,-338.48,69039
521.135,-349.038,68887
520.848,-359.608,68618
520.561,-370.19,68195
520.274,-380.783,67817
519.988,-391.388,67548
519.701,-402.005,67649
519.414,-412.633,67406
519.127,-423.273,67181
518.84,-433.925,66754
518.553,-444.589,66495
518.266,-455.264,66469
517.979,-465.952,66210
517.692,-476.651,66156
517.405,-487.362,66857
517.119,-498.085,71609
516.832,-508.82,70595
516.545,-519.566,66175
516.258,-530.325,65652
515.971,-541.096,65487
515.684,-551.878,65136
515.397,-562.673,65180
515.11,-573.48,64866
514.823,-584.298,65143
514.536,-595.129,65293
514.249,-605.972,65012
513.963,-616.827,65209
513.676,-627.694,64962
513.389,-638.573,64751
513.102,-649.465,64604
512.815,-660.368,64590
512.528,-671.284,64361
512.241,-682.212,64262
511.954,-693.152,64073
511.667,-704.105,64076
511.38,-715.07,64160
511.094,-726.047,63848
510.807,-737.036,63978
510.52,-748.038,63941
510.233,-759.052,63846
509.946,-770.079,63678
509.659,-781.118,63565
509.372,-792.17,63553
509.085,-803.233,63466
508.798,-814.31,63341
525.227,-199.558,63643
524.94,-209.964,63622
524.653,-220.381,63729
524.366,-230.81,63877
524.079,-241.25,63807
523.792,-251.702,63979
523.505,-262.165,64380
523.218,-272.639,66377
522.931,-283.125,69239
522.644,-293.622,69909
522.358,-304.131,69865
522.071,-314.652,69587
521.784,-325.184,69133
521.497,-335.728,69256
521.21,-346.283,68702
520.923,-356.85,68572
520.636,-367.428,68321
520.349,-378.019,68030
520.062,-388.62,68062
519.775,-399.234,67679
519.489,-409.859,67222
519.202,-420.496,67151
518.915,-431.145,66698
518.628,-441.806,66668
518.341,-452.478,69646
518.054,-463.163,66010
517.767,-473.859,66168
517.48,-484.567,66685
517.193,-495.286,69357
516.906,-506.018,72791
516.62,-516.762,66650
516.333,-527.517,65803
516.046,-538.285,65370
515.759,-549.064,65220
515.472,-559.856,65069
515.185,-570.659,65055
514.898,-581.475,64920
514.611,-592.303,65037
514.324,-603.142,64867
514.037,-613.994,64775
513.751,-624.858,64682
513.464,-635.734,64618
513.177,-646.622,64535
512.89,-657.523,64601
512.603,-668.435,64519
512.316,-679.36,64218
512.029,-690.297,64263
511.742,-701.247,64025
511.455,-712.208,64084
511.168,-723.182,64102
510.881,-734.168,63935
510.595,-745.167,63656
510.308,-756.178,63663
510.021,-767.201,63588
509.734,-778.237,63523
509.447,-789.285,63602
509.16,-800.346,63387
508.873,-811.419,63326
525.301,-196.846,63641
525.015,-207.249,63652
524.728,-217.663,63823
524.441,-228.088,63746
524.154,-238.526,63890
523.867,-248.974,63924
523.58,-259.434,64232
523.293,-269.905,65726
523.006,-280.388,68538
522.719,-290.883,70098
522.432,-301.389,69634
522.146,-311.906,69494
521.859,-322.435,69074
521.572,-332.976,69000
521.285,-343.528,68749
520.998,-354.092,68588
520.711,-364.668,68191
520.424,-375.255,67933
520.137,-385.854,67874
519.85,-396.464,67370
519.563,-407.086,67419
519.277,-417.72,67085
518.99,-428.366,66643
518.703,-439.024,66491
518.416,-449.693,66186
518.129,-460.374,66152
517.842,-471.067,65892
517.555,-481.772,66285
517.268,-492.489,67773
516.981,-503.217,74144
516.694,-513.958,67221
516.407,-524.71,65720
516.121,-535.475,65322
515.834,-546.251,65077
515.547,-557.039,64936
515.26,-567.84,65121
514.973,-578.652,64613
514.686,-589.477,64956
514.399,-600.313,64870
514.112,-611.162,64930
513.825,-622.023,64620
513.538,-632.896,64651
513.252,-643.781,64470
512.965,-654.678,64547
512.678,-665.587,64571
512.391,-676.509,64200
512.104,-687.443,64172
511.817,-698.389,64171
511.53,-709.347,64146
511.243,-720.318,63834
510.956,-731.301,63713
510.669,-742.297,63878
510.383,-753.304,63656
510.096,-764.325,63662
509.809,-775.357,63512
509.522,-786.402,63368
509.235,-797.459,63426
508.948,-808.529,63460
508.661,-819.612,63233
525.089,-204.534,63621
524.802,-214.945,63720
524.516,-225.368,63908
524.229,-235.802,63871
523.942,-246.247,63623
523.655,-256.704,64073
523.368,-267.173,65172
523.081,-277.653,67656
522.794,-288.144,69663
522.507,-298.647,69886
522.22,-309.161,69365
521.933,-319.687,69064
521.647,-330.225,68901
521.36,-340.774,68557
521.073,-351.335,68592
520.786,-361.908,67942
520.499,-372.492,67947
520.212,-383.088,67769
519.925,-393.695,67487
519.638,-404.314,67225
519.351,-414.945,67084
519.064,-425.588,66779
518.778,-436.242,66563
518.491,-446.909,66199
518.204,-457.587,66194
517.917,-468.277,66039
517.63,-478.978,66055
517.343,-489.692,67096
517.056,-500.417,73161
516.769,-511.155,68410
516.482,-521.904,65994
516.195,-532.665,65279
515.909,-543.439,65097
515.622,-554.224,64986
515.335,-565.021,65084
515.048,-575.831,64940
514.761,-586.652,64844
514.474,-597.485,64904
514.187,-608.331,64868
513.9,-619.188,64683
513.613,-630.058,64737
513.326,-640.94,64439
513.04,-651.834,64442
512.753,-662.74,64163
512.466,-673.659,64376
512.179,-684.589,64186
511.892,-695.532,64094
511.605,-706.488,63994
511.318,-717.455,63807
511.031,-728.435,63798
510.744,-739.427,63888
510.457,-750.432,63693
510.17,-761.448,63706
509.884,-772.478,63559
509.597,-783.52,63437
509.31,-794.574,63481
509.023,-805.64,63252
508.736,-816.719,63206
508.661,-819.612,63199

File: Si_onTiO2_50mA_30mW_30sec_5acc_545nm.txt
Wavelength(nm), Raman shift(cm^-1), Intensity(counts)
553.364,768.549,82469
553.077,759.175,82769
552.79,749.791,83225
552.503,740.397,82931
552.216,730.994,82909
551.929,721.58,82848
551.642,712.157,82987
551.356,702.724,82642
551.069,693.282,82295
550.782,683.829,82567
550.495,674.367,82475
550.208,664.894,81982
549.921,655.412,82173
549.634,645.92,81984
549.347,636.418,81933
549.06,626.906,82070
548.773,617.385,81942
548.486,607.853,81702
548.2,598.311,81649
547.913,588.759,80911
547.626,579.197,80309
547.339,569.626,80112
547.052,560.044,79725
546.765,550.452,79205
546.478,540.85,79379
546.191,531.238,79211
545.904,521.616,79526
545.617,511.983,82016
545.331,502.341,90722
545.044,492.688,82055
544.757,483.026,79402
544.47,473.353,78651
544.183,463.67,78161
543.896,453.976,77648
543.609,444.273,77144
543.322,434.559,77270
543.035,424.835,77362
542.748,415.1,77266
542.462,405.356,77137
542.175,395.601,77313
541.888,385.836,76944
541.601,376.06,76549
541.314,366.274,76201
541.027,356.478,76478
540.74,346.671,76569
540.453,336.854,76140
540.166,327.026,75546
539.879,317.188,75114
539.593,307.339,75742
539.306,297.48,75682
539.019,287.611,74402
538.732,277.731,73888
538.445,267.84,70763
538.158,257.939,63889
537.871,248.028,61400
537.584,238.105,61146
537.297,228.172,60913
537.01,218.229,60940
536.723,208.275,61007
553.152,761.621,83896
552.865,752.24,83551
552.578,742.849,83493
552.291,733.448,83605
552.004,724.037,83395
551.717,714.616,83206
551.43,705.186,83261
551.143,695.746,83488
550.857,686.296,82996
550.57,676.836,83261
550.283,667.366,83041
549.996,657.887,82571
549.709,648.397,82580
549.422,638.898,82760
549.135,629.389,82757
548.848,619.869,82718
548.561,610.34,82322
548.274,600.801,81897
547.988,591.252,81485
547.701,581.693,81159
547.414,572.124,80909
547.127,562.544,80652
546.84,552.955,80010
546.553,543.356,80000
546.266,533.746,79771
545.979,524.127,80261
545.692,514.497,81366
545.405,504.857,89809
545.119,495.207,84516
544.832,485.547,80189
544.545,475.877,79334
544.258,466.197,78670
543.971,456.506,78213
543.684,446.805,77995
543.397,437.094,78080
543.11,427.373,77557
542.823,417.641,77922
542.536,407.899,77893
542.249,398.147,77721
541.963,388.384,77301
541.676,378.611,77169
541.389,368.828,76971
541.102,359.034,76974
540.815,349.23,76921
540.528,339.416,76189
540.241,329.591,76290
539.954,319.755,75959
539.667,309.91,76227
539.38,300.053,76077
539.094,290.186,75353
538.807,280.309,74082
538.52,270.421,72663
538.233,260.523,65355
537.946,250.614,61731
537.659,240.695,61172
537.372,230.765,60929
537.085,220.824,60918
536.798,210.873,61013
553.227,764.067,83667
552.94,754.688,83596
552.653,745.299,83698
552.366,735.901,83171
552.079,726.493,83253
551.792,717.075,82987
551.505,707.647,83013
551.218,698.21,83150
550.931,688.762,83328
550.644,679.305,83063
550.358,669.838,82643
550.071,660.361,82759
549.784,650.874,82661
549.497,641.377,82647
549.21,631.87,83016
548.923,622.354,82546
548.636,612.827,82975
548.349,603.291,82200
548.062,593.744,81637
547.775,584.187,81435
547.489,574.621,80585
547.202,565.044,80373
546.915,555.458,80490
546.628,545.861,79915
546.341,536.254,79952
546.054,526.637,80101
545.767,517.01,80455
545.48,507.373,87060
545.193,497.726,87122
544.906,488.068,80705
544.62,478.401,79737
544.333,468.723,79041
544.046,459.035,78339
543.759,449.337,78040
543.472,439.628,78023
543.185,429.91,77756
542.898,420.181,77782
542.611,410.441,77826
542.324,400.692,77466
542.037,390.932,77476
541.751,381.162,77351
541.464,371.381,76779
541.177,361.59,77011
540.89,351.789,77058
540.603,341.977,76621
540.316,332.155,76143
540.029,322.322,75774
539.742,312.479,76004
539.455,302.625,76358
539.168,292.761,75510
538.881,282.887,74347
538.595,273.002,73609
538.308,263.106,67181
538.021,253.2,62295
537.734,243.283,61146
537.447,233.356,61053
537.16,223.418,60976
536.873,213.47,60983
553.301,766.512,84084
553.015,757.136,84152
552.728,747.75,83845
552.441,738.354,83652
552.154,728.948,83902
551.867,719.533,83345
551.58,710.107,83499
551.293,700.672,83614
551.006,691.228,83362
550.719,681.773,83536
550.432,672.308,83307
550.146,662.834,83149
549.859,653.35,83107
549.572,643.855,82960
549.285,634.351,83100
548.998,624.837,83424
548.711,615.313,82910
548.424,605.779,82574
548.137,596.235,81894
547.85,586.681,81599
547.563,577.117,81076
547.277,567.543,80915
546.99,557.959,80564
546.703,548.365,80230
546.416,538.761,80367
546.129,529.147,80043
545.842,519.523,80491
545.555,509.888,84202
545.268,500.243,90471
544.981,490.589,82003
544.694,480.924,79935
544.407,471.249,79186
544.121,461.563,79020
543.834,451.868,78404
543.547,442.162,78011
543.26,432.446,78114
542.973,422.72,78221
542.686,412.983,77963
542.399,403.236,78060
542.112,393.479,77685
541.825,383.711,77697
541.538,373.933,77304
541.252,364.145,77603
540.965,354.347,77322
540.678,344.537,77236
540.391,334.718,76398
540.104,324.888,75870
539.817,315.048,76189
539.53,305.197,76436
539.243,295.336,76034
538.956,285.464,74665
538.669,275.582,74284
538.383,265.689,69463
538.096,255.785,62967
537.809,245.871,61214
537.522,235.947,61005
537.235,226.012,61060
536.948,216.066,60925
536.661,206.11,60927
553.089,759.583,84919
552.802,750.199,84948
552.516,740.806,84473
552.229,731.403,84529
551.942,721.99,84404
551.655,712.567,84430
551.368,703.135,84190
551.081,693.692,84423
550.794,684.24,84288
550.507,674.778,84110
550.22,665.306,83784
549.933,655.825,83674
549.647,646.333,83540
549.36,636.832,83819
549.073,627.32,83607
548.786,617.799,83659
548.499,608.267,83133
548.212,598.726,82939
547.925,589.175,82093
547.638,579.613,81925
547.351,570.042,81475
547.064,560.461,81210
546.778,550.869,81058
546.491,541.268,80564
546.204,531.656,80732
545.917,522.034,80680
545.63,512.402,82997
545.343,502.76,92235
545.056,493.108,83811
544.769,483.446,80658
544.482,473.774,79531
544.195,464.091,79693
543.909,454.398,79069
543.622,444.695,78799
543.335,434.981,78457
543.048,425.258,78604
542.761,415.524,78697
542.474,405.78,78506
542.187,396.025,78051
541.9,386.26,78236
541.613,376.485,77920
541.326,366.7,77662
541.04,356.904,77619
540.753,347.097,77501
540.466,337.281,76978
540.179,327.453,76697
539.892,317.616,76646
539.605,307.768,76917
539.318,297.909,76850
539.031,288.04,75709
538.744,278.161,74695
538.457,268.271,71817
538.17,258.37,64027
537.884,248.459,61526
537.597,238.537,61065
537.31,228.605,60969
537.023,218.662,60934
536.736,208.708,60963
536.661,206.11,60966

File: Si_onTiO2_50mA_30mW_30sec_5acc_545nm_bg.txt
Wavelength(nm), Raman shift(cm^-1), Intensity(counts)
553.364,768.549,78775
553.077,759.175,79086
552.79,749.791,79010
552.503,740.397,78880
552.216,730.994,78499
551.929,721.58,78949
551.642,712.157,78483
551.356,702.724,78535
551.069,693.282,78548
550.782,683.829,78674
550.495,674.367,78603
550.208,664.894,78297
549.921,655.412,78261
549.634,645.92,78064
549.347,636.418,77818
549.06,626.906,78071
548.773,617.385,78111
548.486,607.853,77835
548.2,598.311,77471
547.913,588.759,76799
547.626,579.197,76643
547.339,569.626,76283
547.052,560.044,75988
546.765,550.452,75505
546.478,540.85,75543
546.191,531.238,75305
545.904,521.616,74910
545.617,511.983,74722
545.331,502.341,74531
545.044,492.688,74605
544.757,483.026,74560
544.47,473.353,74629
544.183,463.67,74240
543.896,453.976,74387
543.609,444.273,73991
543.322,434.559,73687
543.035,424.835,73503
542.748,415.1,73790
542.462,405.356,73769
542.175,395.601,73307
541.888,385.836,73337
541.601,376.06,72925
541.314,366.274,72712
541.027,356.478,72883
540.74,346.671,72747
540.453,336.854,72206
540.166,327.026,71823
539.879,317.188,71519
539.593,307.339,71715
539.306,297.48,72676
539.019,287.611,70382
538.732,277.731,70126
538.445,267.84,67892
538.158,257.939,62730
537.871,248.028,61144
537.584,238.105,60927
537.297,228.172,60806
537.01,218.229,60758
536.723,208.275,60880
553.152,761.621,79526
552.865,752.24,78859
552.578,742.849,79084
552.291,733.448,79267
552.004,724.037,78785
551.717,714.616,78823
551.43,705.186,79027
551.143,695.746,79132
550.857,686.296,78976
550.57,676.836,78717
550.283,667.366,78622
549.996,657.887,78762
549.709,648.397,78486
549.422,638.898,78461
549.135,629.389,78762
548.848,619.869,78432
548.561,610.34,78339
548.274,600.801,77606
547.988,591.252,77352
547.701,581.693,77142
547.414,572.124,76745
547.127,562.544,76606
546.84,552.955,76289
546.553,543.356,76045
546.266,533.746,75657
545.979,524.127,75350
545.692,514.497,75091
545.405,504.857,74866
545.119,495.207,75033
544.832,485.547,74639
544.545,475.877,74731
544.258,466.197,74799
543.971,456.506,74700
543.684,446.805,74241
543.397,437.094,74200
543.11,427.373,73730
542.823,417.641,73899
542.536,407.899,73988
542.249,398.147,73820
541.963,388.384,73621
541.676,378.611,73411
541.389,368.828,73314
541.102,359.034,73165
540.815,349.23,72910
540.528,339.416,72889
540.241,329.591,72028
539.954,319.755,71975
539.667,309.91,71956
539.38,300.053,71722
539.094,290.186,70824
538.807,280.309,70191
538.52,270.421,69303
538.233,260.523,63977
537.946,250.614,61398
537.659,240.695,60931
537.372,230.765,60862
537.085,220.824,60727
536.798,210.873,60816
553.227,764.067,79151
552.94,754.688,79094
552.653,745.299,78830
552.366,735.901,78716
552.079,726.493,78428
551.792,717.075,78845
551.505,707.647,78781
551.218,698.21,78399
550.931,688.762,78665
550.644,679.305,78372
550.358,669.838,78080
550.071,660.361,78343
549.784,650.874,78329
549.497,641.377,78006
549.21,631.87,77973
548.923,622.354,78118
548.636,612.827,77796
548.349,603.291,77722
548.062,593.744,77575
547.775,584.187,76369
547.489,574.621,76631
547.202,565.044,76080
546.915,555.458,76220
546.628,545.861,75751
546.341,536.254,75542
546.054,526.637,75054
545.767,517.01,74720
545.48,507.373,74698
545.193,497.726,74532
544.906,488.068,74399
544.62,478.401,74448
544.333,468.723,74266
544.046,459.035,74115
543.759,449.337,73945
543.472,439.628,73630
543.185,429.91,73675
542.898,420.181,73609
542.611,410.441,73861
542.324,400.692,73577
542.037,390.932,73214
541.751,381.162,73168
541.464,371.381,72873
541.177,361.59,72831
540.89,351.789,72770
540.603,341.977,72359
540.316,332.155,72070
540.029,322.322,71835
539.742,312.479,71918
539.455,302.625,71517
539.168,292.761,71042
538.881,282.887,70191
538.595,273.002,69901
538.308,263.106,65405
538.021,253.2,61749
537.734,243.283,60983
537.447,233.356,60840
537.16,223.418,60828
536.873,213.47,60852
553.301,766.512,79467
553.015,757.136,79530
552.728,747.75,79474
552.441,738.354,79020
552.154,728.948,78766
551.867,719.533,79173
551.58,710.107,79006
551.293,700.672,78969
551.006,691.228,79098
550.719,681.773,78617
550.432,672.308,78671
550.146,662.834,78397
549.859,653.35,78543
549.572,643.855,78388
549.285,634.351,78665
548.998,624.837,78483
548.711,615.313,78402
548.424,605.779,78103
548.137,596.235,77727
547.85,586.681,77135
547.563,577.117,77051
547.277,567.543,76731
546.99,557.959,76325
546.703,548.365,76228
546.416,538.761,75739
546.129,529.147,75466
545.842,519.523,75434
545.555,509.888,74773
545.268,500.243,74808
544.981,490.589,74618
544.694,480.924,74450
544.407,471.249,74515
544.121,461.563,74823
543.834,451.868,74200
543.547,442.162,74119
543.26,432.446,74143
542.973,422.72,73813
542.686,412.983,74086
542.399,403.236,74101
542.112,393.479,73632
541.825,383.711,73678
541.538,373.933,73419
541.252,364.145,73388
540.965,354.347,73318
540.678,344.537,72726
540.391,334.718,72290
540.104,324.888,71835
539.817,315.048,72066
539.53,305.197,72114
539.243,295.336,71626
538.956,285.464,70164
538.669,275.582,70220
538.383,265.689,67060
538.096,255.785,62184
537.809,245.871,61191
537.522,235.947,60867
537.235,226.012,60911
536.948,216.066,60749
536.661,206.11,60826
553.089,759.583,79777
552.802,750.199,79395
552.516,740.806,79582
552.229,731.403,79159
551.942,721.99,79398
551.655,712.567,79271
551.368,703.135,79013
551.081,693.692,79122
550.794,684.24,78996
550.507,674.778,78711
550.22,665.306,78737
549.933,655.825,78749
549.647,646.333,78552
549.36,636.832,78455
549.073,627.32,78592
548.786,617.799,78303
548.499,608.267,78480
548.212,598.726,77701
547.925,589.175,77506
547.638,579.613,76952
547.351,570.042,77028
547.064,560.461,76887
546.778,550.869,76435
546.491,541.268,75959
546.204,531.656,75616
545.917,522.034,75579
545.63,512.402,75343
545.343,502.76,74915
545.056,493.108,74779
544.769,483.446,74764
544.482,473.774,74913
544.195,464.091,74849
543.909,454.398,74124
543.622,444.695,73947
543.335,434.981,74214
543.048,425.258,73986
542.761,415.524,74130
542.474,405.78,74330
542.187,396.025,73815
541.9,386.26,73711
541.613,376.485,73496
541.326,366.7,73338
541.04,356.904,73212
540.753,347.097,73201
540.466,337.281,72660
540.179,327.453,72335
539.892,317.616,72023
539.605,307.768,72041
539.318,297.909,71539
539.031,288.04,70718
538.744,278.161,70327
538.457,268.271,68529
538.17,258.37,63049
537.884,248.459,61290
537.597,238.537,60977
537.31,228.605,61004
537.023,218.662,60844
536.736,208.708,60820
536.661,206.11,60804