Folder: flash_scratch/tomke/20240809_Si_on_TiO2/20240809/raw_data (part 9)

File: Si_onTiO2_150mA_30mW_30sec_5acc_545nm.txt
Wavelength(nm), Raman shift(cm^-1), Intensity(counts)
553.364,768.549,499279
553.077,759.175,497481
552.79,749.791,495489
552.503,740.397,492674
552.216,730.994,489035
551.929,721.58,488384
551.642,712.157,488986
551.356,702.724,486612
551.069,693.282,487924
550.782,683.829,482416
550.495,674.367,479314
550.208,664.894,473591
549.921,655.412,471851
549.634,645.92,470711
549.347,636.418,469993
549.06,626.906,469710
548.773,617.385,468922
548.486,607.853,462775
548.2,598.311,456488
547.913,588.759,450022
547.626,579.197,445446
547.339,569.626,442925
547.052,560.044,439887
546.765,550.452,439725
546.478,540.85,436387
546.191,531.238,432882
545.904,521.616,428253
545.617,511.983,421987
545.331,502.341,425697
545.044,492.688,423917
544.757,483.026,419483
544.47,473.353,418572
544.183,463.67,416001
543.896,453.976,410508
543.609,444.273,405759
543.322,434.559,400439
543.035,424.835,400403
542.748,415.1,402706
542.462,405.356,401256
542.175,395.601,398757
541.888,385.836,391405
541.601,376.06,388208
541.314,366.274,386293
541.027,356.478,384945
540.74,346.671,379401
540.453,336.854,370623
540.166,327.026,359291
539.879,317.188,357286
539.593,307.339,360756
539.306,297.48,349939
539.019,287.611,322107
538.732,277.731,317071
538.445,267.84,258659
538.158,257.939,119499
537.871,248.028,75367
537.584,238.105,68593
537.297,228.172,66836
537.01,218.229,66524
536.723,208.275,66195
553.152,761.621,517670
552.865,752.24,516531
552.578,742.849,512764
552.291,733.448,510085
552.004,724.037,507176
551.717,714.616,505848
551.43,705.186,507161
551.143,695.746,505869
550.857,686.296,503164
550.57,676.836,498756
550.283,667.366,494364
549.996,657.887,490292
549.709,648.397,488358
549.422,638.898,489701
549.135,629.389,486752
548.848,619.869,487733
548.561,610.34,482501
548.274,600.801,475768
547.988,591.252,469012
547.701,581.693,464008
547.414,572.124,459444
547.127,562.544,457194
546.84,552.955,458593
546.553,543.356,454958
546.266,533.746,450159
545.979,524.127,445835
545.692,514.497,440036
545.405,504.857,440209
545.119,495.207,441379
544.832,485.547,435148
544.545,475.877,435047
544.258,466.197,431703
543.971,456.506,427795
543.684,446.805,421808
543.397,437.094,416319
543.11,427.373,415274
542.823,417.641,417307
542.536,407.899,417098
542.249,398.147,415614
541.963,388.384,409218
541.676,378.611,403624
541.389,368.828,401720
541.102,359.034,399329
540.815,349.23,395787
540.528,339.416,387796
540.241,329.591,373878
539.954,319.755,369032
539.667,309.91,373711
539.38,300.053,368223
539.094,290.186,342331
538.807,280.309,326416
538.52,270.421,300885
538.233,260.523,152236
537.946,250.614,81213
537.659,240.695,69819
537.372,230.765,67452
537.085,220.824,66798
536.798,210.873,66163
553.227,764.067,577236
552.94,754.688,572384
552.653,745.299,569136
552.366,735.901,565085
552.079,726.493,563898
551.792,717.075,561491
551.505,707.647,561930
551.218,698.21,560182
550.931,688.762,558649
550.644,679.305,553429
550.358,669.838,549963
550.071,660.361,541853
549.784,650.874,541873
549.497,641.377,542119
549.21,631.87,541756
548.923,622.354,540655
548.636,612.827,535974
548.349,603.291,531345
548.062,593.744,523103
547.775,584.187,515343
547.489,574.621,508521
547.202,565.044,508109
546.915,555.458,507267
546.628,545.861,505484
546.341,536.254,501280
546.054,526.637,494734
545.767,517.01,487548
545.48,507.373,485749
545.193,497.726,489686
544.906,488.068,482935
544.62,478.401,482603
544.333,468.723,481560
544.046,459.035,476426
543.759,449.337,468908
543.472,439.628,461901
543.185,429.91,460335
542.898,420.181,460551
542.611,410.441,460878
542.324,400.692,459843
542.037,390.932,454235
541.751,381.162,448240
541.464,371.381,442487
541.177,361.59,442107
540.89,351.789,440249
540.603,341.977,430923
540.316,332.155,417885
540.029,322.322,408994
539.742,312.479,411432
539.455,302.625,411814
539.168,292.761,386919
538.881,282.887,361616
538.595,273.002,354714
538.308,263.106,205600
538.021,253.2,93720
537.734,243.283,72179
537.447,233.356,68614
537.16,223.418,67326
536.873,213.47,67128
553.301,766.512,564538
553.015,757.136,561607
552.728,747.75,560605
552.441,738.354,553250
552.154,728.948,552961
551.867,719.533,551555
551.58,710.107,549984
551.293,700.672,549184
551.006,691.228,549940
550.719,681.773,545851
550.432,672.308,541473
550.146,662.834,535086
549.859,653.35,532050
549.572,643.855,529627
549.285,634.351,530604
548.998,624.837,529774
548.711,615.313,527023
548.424,605.779,522000
548.137,596.235,515662
547.85,586.681,503917
547.563,577.117,500708
547.277,567.543,498335
546.99,557.959,496753
546.703,548.365,497417
546.416,538.761,491330
546.129,529.147,485651
545.842,519.523,479834
545.555,509.888,474604
545.268,500.243,479678
544.981,490.589,474099
544.694,480.924,474164
544.407,471.249,470917
544.121,461.563,466890
543.834,451.868,460679
543.547,442.162,453239
543.26,432.446,451764
542.973,422.72,449357
542.686,412.983,452159
542.399,403.236,451845
542.112,393.479,446657
541.825,383.711,438361
541.538,373.933,435315
541.252,364.145,433096
540.965,354.347,431666
540.678,344.537,424961
540.391,334.718,412882
540.104,324.888,401722
539.817,315.048,401646
539.53,305.197,404525
539.243,295.336,388455
538.956,285.464,357717
538.669,275.582,354213
538.383,265.689,249676
538.096,255.785,109193
537.809,245.871,74535
537.522,235.947,68945
537.235,226.012,67552
536.948,216.066,67079
536.661,206.11,66829
553.089,759.583,540420
552.802,750.199,538460
552.516,740.806,533214
552.229,731.403,532281
551.942,721.99,529412
551.655,712.567,529270
551.368,703.135,529099
551.081,693.692,526098
550.794,684.24,524572
550.507,674.778,519791
550.22,665.306,515687
549.933,655.825,510415
549.647,646.333,510510
549.36,636.832,509644
549.073,627.32,509186
548.786,617.799,508943
548.499,608.267,502782
548.212,598.726,495599
547.925,589.175,489354
547.638,579.613,483313
547.351,570.042,479144
547.064,560.461,477874
546.778,550.869,476521
546.491,541.268,474019
546.204,531.656,469175
545.917,522.034,464599
545.63,512.402,457119
545.343,502.76,459745
545.056,493.108,457538
544.769,483.446,455048
544.482,473.774,453450
544.195,464.091,451282
543.909,454.398,444179
543.622,444.695,438940
543.335,434.981,434679
543.048,425.258,432028
542.761,415.524,434304
542.474,405.78,435456
542.187,396.025,432230
541.9,386.26,425226
541.613,376.485,419389
541.326,366.7,418213
541.04,356.904,416044
540.753,347.097,413095
540.466,337.281,400102
540.179,327.453,386892
539.892,317.616,385467
539.605,307.768,389765
539.318,297.909,379472
539.031,288.04,349795
538.744,278.161,341285
538.457,268.271,283949
538.17,258.37,129984
537.884,248.459,77691
537.597,238.537,69213
537.31,228.605,67510
537.023,218.662,66969
536.736,208.708,66434
536.661,206.11,66601

File: TiO2_flash_50mA_695.txt
Wavelength(nm), Raman shift(cm^-1), Intensity(counts)
702.12,661.884,176516
701.876,656.927,176244
701.632,651.968,177240
701.387,647.005,177464
701.143,642.038,176601
700.899,637.069,177011
700.655,632.095,176958
700.41,627.118,178137
700.166,622.138,178075
699.922,617.154,177606
699.678,612.167,177391
699.433,607.176,176872
699.189,602.182,177144
698.945,597.184,177688
698.701,592.183,176848
698.456,587.178,176763
698.212,582.17,177256
697.968,577.158,176851
697.724,572.143,176890
697.48,567.124,177197
697.235,562.102,176886
696.991,557.076,177030
696.747,552.047,176835
696.503,547.014,178252
696.258,541.978,178040
696.014,536.938,177813
695.77,531.894,177446
695.526,526.847,177469
695.281,521.797,177384
695.037,516.743,177789
694.793,511.685,177858
694.549,506.624,177581
694.304,501.559,178499
694.06,496.491,177638
693.816,491.419,178433
693.572,486.343,178791
693.328,481.264,178235
693.083,476.182,177973
692.839,471.095,178479
692.595,466.006,178604
692.351,460.912,178374
692.106,455.815,178183
691.862,450.715,178495
691.618,445.611,178524
691.374,440.503,178629
691.129,435.391,178066
690.885,430.276,178936
690.641,425.158,178627
690.397,420.036,179721
690.152,414.91,178703
689.908,409.78,178839
689.664,404.647,179160
689.42,399.51,178520
689.175,394.37,178097
688.931,389.226,179170
688.687,384.078,178669
688.443,378.927,177842
688.199,373.772,177225
687.954,368.613,175613
701.94,658.221,182435
701.695,653.262,182531
701.451,648.3,183022
701.207,643.334,183431
700.963,638.365,183309
700.718,633.393,183578
700.474,628.417,183309
700.23,623.438,183288
699.986,618.455,183086
699.741,613.468,183355
699.497,608.478,183649
699.253,603.485,182711
699.009,598.488,183627
698.764,593.488,183617
698.52,588.484,183413
698.276,583.477,183763
698.032,578.466,183461
697.787,573.452,182736
697.543,568.434,183114
697.299,563.412,183715
697.055,558.388,183723
696.811,553.359,183788
696.566,548.327,183424
696.322,543.292,183272
696.078,538.253,183347
695.834,533.21,183225
695.589,528.164,184074
695.345,523.115,184576
695.101,518.061,183149
694.857,513.005,183389
694.612,507.944,184203
694.368,502.881,183919
694.124,497.813,184670
693.88,492.742,184255
693.635,487.668,184145
693.391,482.59,184043
693.147,477.508,184099
692.903,472.423,184420
692.659,467.334,184603
692.414,462.241,184455
692.17,457.145,184111
691.926,452.046,184525
691.682,446.942,185100
691.437,441.836,184684
691.193,436.725,184013
690.949,431.611,184476
690.705,426.493,184755
690.46,421.372,185677
690.216,416.247,184964
689.972,411.119,184518
689.728,405.986,184808
689.483,400.851,183686
689.239,395.711,185554
688.995,390.568,185537
688.751,385.421,184943
688.506,380.271,184332
688.262,375.117,183549
688.018,369.959,182616
702.003,659.514,184283
701.759,654.556,183643
701.515,649.595,184180
701.271,644.63,184041
701.026,639.662,184880
700.782,634.69,184834
700.538,629.715,184755
700.294,624.737,184948
700.049,619.755,184556
699.805,614.769,184484
699.561,609.78,184753
699.317,604.788,184088
699.072,599.792,183909
698.828,594.793,184814
698.584,589.79,184692
698.34,584.783,184463
698.095,579.773,184218
697.851,574.76,185248
697.607,569.743,183919
697.363,564.723,184422
697.118,559.699,183634
696.874,554.671,184093
696.63,549.64,183776
696.386,544.606,184439
696.142,539.568,185119
695.897,534.526,183815
695.653,529.481,184805
695.409,524.432,185456
695.165,519.38,185865
694.92,514.324,185240
694.676,509.265,185809
694.432,504.202,184859
694.188,499.135,184592
693.943,494.065,185734
693.699,488.992,186374
693.455,483.915,185384
693.211,478.834,184804
692.966,473.75,185262
692.722,468.662,185059
692.478,463.57,185576
692.234,458.475,185729
691.99,453.376,185050
691.745,448.274,185446
691.501,443.168,185198
691.257,438.059,186068
691.013,432.946,186252
690.768,427.829,186530
690.524,422.708,185352
690.28,417.584,185638
690.036,412.457,186671
689.791,407.326,186646
689.547,402.191,185989
689.303,397.052,186171
689.059,391.91,185465
688.814,386.764,186666
688.57,381.615,185316
688.326,376.462,184839
688.082,371.305,183126
702.067,660.806,190811
701.823,655.85,191326
701.578,650.889,190730
701.334,645.926,191096
701.09,640.958,192093
700.846,635.988,191640
700.602,631.014,190463
700.357,626.036,191777
700.113,621.055,190750
699.869,616.07,191264
699.625,611.082,190802
699.38,606.091,191537
699.136,601.096,191709
698.892,596.097,191945
698.648,591.095,190957
698.403,586.09,192084
698.159,581.081,191661
697.915,576.068,191509
697.671,571.052,191413
697.426,566.033,191326
697.182,561.01,192129
696.938,555.983,191640
696.694,550.953,192157
696.449,545.919,191934
696.205,540.882,192621
695.961,535.842,192232
695.717,530.797,192046
695.473,525.75,191950
695.228,520.698,191769
694.984,515.643,192335
694.74,510.585,192761
694.496,505.523,192285
694.251,500.457,192141
694.007,495.388,192454
693.763,490.316,192114
693.519,485.239,192939
693.274,480.16,192263
693.03,475.076,192481
692.786,469.989,193363
692.542,464.899,193130
692.297,459.805,192161
692.053,454.707,193733
691.809,449.605,192885
691.565,444.5,193608
691.321,439.392,193370
691.076,434.28,193164
690.832,429.164,193454
690.588,424.045,193162
690.344,418.921,192832
690.099,413.795,193155
689.855,408.665,194105
689.611,403.531,194341
689.367,398.393,193476
689.122,393.252,193401
688.878,388.107,194328
688.634,382.958,193695
688.39,377.806,192394
688.145,372.651,191423
687.901,367.491,189428
701.886,657.143,189270
701.642,652.184,188595
701.398,647.221,189730
701.154,642.254,189945
700.909,637.285,189334
700.665,632.311,188821
700.421,627.335,189199
700.177,622.355,188611
699.933,617.371,189044
699.688,612.384,189179
699.444,607.393,189556
699.2,602.399,188568
698.956,597.402,189341
698.711,592.4,188404
698.467,587.396,189412
698.223,582.388,189205
697.979,577.376,188172
697.734,572.361,189397
697.49,567.342,189275
697.246,562.32,189957
697.002,557.295,190077
696.757,552.266,189341
696.513,547.233,190392
696.269,542.197,190203
696.025,537.157,188915
695.78,532.114,190217
695.536,527.067,189479
695.292,522.016,189452
695.048,516.962,189328
694.804,511.905,189903
694.559,506.844,189770
694.315,501.779,190426
694.071,496.711,189445
693.827,491.639,190173
693.582,486.564,190330
693.338,481.485,190681
693.094,476.403,190113
692.85,471.317,190402
692.605,466.227,190999
692.361,461.134,190291
692.117,456.037,190264
691.873,450.937,190817
691.628,445.833,189352
691.384,440.725,190257
691.14,435.614,190552
690.896,430.499,190548
690.652,425.38,191257
690.407,420.258,191079
690.163,415.133,190090
689.919,410.003,190830
689.675,404.87,191419
689.43,399.734,190704
689.186,394.593,190843
688.942,389.449,191256
688.698,384.302,190385
688.453,379.151,189651
688.209,373.996,189283
687.965,368.837,186998
687.901,367.491,187130