Folder: flash_scratch/tomke/20240809_Si_on_TiO2/20240809/raw_data (part 4)

File: Si_onTiO2_0mA_30mW_30sec_4acc_545nm_02.txt
Wavelength(nm), Raman shift(cm^-1), Intensity(counts)
553.364,768.549,59879
553.139,761.214,60076
552.915,753.872,60168
552.69,746.525,60107
552.466,739.171,60156
552.241,731.812,60109
552.017,724.446,60125
551.792,717.075,60176
551.568,709.697,60090
551.343,702.314,60134
551.119,694.925,60116
550.894,687.529,60243
550.669,680.128,60292
550.445,672.72,60315
550.22,665.306,60233
549.996,657.887,60309
549.771,650.461,60266
549.547,643.029,60307
549.322,635.592,60360
549.098,628.148,60355
548.873,620.698,60322
548.649,613.242,60356
548.424,605.779,60308
548.2,598.311,60207
547.975,590.837,60154
547.751,583.356,60197
547.526,575.869,60191
547.301,568.376,60215
547.077,560.877,60243
546.852,553.372,60326
546.628,545.861,60480
546.403,538.343,60977
546.179,530.82,62551
545.954,523.29,107883
545.73,515.754,70368
545.505,508.211,61543
545.281,500.663,60803
545.056,493.108,60498
544.832,485.547,60361
544.607,477.98,60294
544.383,470.407,60248
544.158,462.827,60212
543.933,455.241,60246
543.709,447.649,60363
543.484,440.051,60374
543.26,432.446,60482
543.035,424.835,60448
542.811,417.218,60346
542.586,409.594,60358
542.362,401.964,60425
542.137,394.328,60505
541.913,386.685,60357
541.688,379.036,60365
541.464,371.381,60461
541.239,363.719,60495
541.015,356.051,60479
540.79,348.377,60516
540.565,340.696,60539
540.341,333.009,60633
540.116,325.316,60827
539.892,317.616,60790
539.667,309.91,60928
539.443,302.197,61325
539.218,294.478,60789
538.994,286.752,60699
538.769,279.02,60708
538.545,271.282,60809
538.32,263.537,60569
538.096,255.785,60140
537.871,248.028,60107
537.647,240.263,60082
537.422,232.492,59990
537.198,224.715,59943
536.973,216.931,60020
536.748,209.141,60017
553.239,764.475,60169
553.015,757.136,60104
552.79,749.791,60136
552.565,742.44,60114
552.341,735.083,60145
552.116,727.721,60088
551.892,720.352,60176
551.667,712.977,60202
551.443,705.596,60144
551.218,698.21,60182
550.994,690.817,60240
550.769,683.418,60215
550.545,676.013,60202
550.32,668.602,60324
550.096,661.185,60190
549.871,653.762,60327
549.647,646.333,60341
549.422,638.898,60334
549.198,631.457,60402
548.973,624.009,60421
548.748,616.556,60364
548.524,609.097,60300
548.299,601.631,60278
548.075,594.159,60284
547.85,586.681,60206
547.626,579.197,60164
547.401,571.707,60176
547.177,564.211,60181
546.952,556.709,60437
546.728,549.2,60486
546.503,541.685,60819
546.279,534.164,61476
546.054,526.637,69563
545.83,519.104,95865
545.605,511.564,62648
545.38,504.019,60848
545.156,496.467,60685
544.931,488.909,60448
544.707,481.344,60380
544.482,473.774,60318
544.258,466.197,60248
544.033,458.614,60174
543.809,451.024,60255
543.584,443.428,60276
543.36,435.827,60426
543.135,428.218,60427
542.911,420.604,60477
542.686,412.983,60442
542.462,405.356,60407
542.237,397.722,60433
542.012,390.083,60417
541.788,382.437,60519
541.563,374.784,60326
541.339,367.125,60448
541.114,359.46,60507
540.89,351.789,60433
540.665,344.111,60522
540.441,336.426,60630
540.216,328.736,60705
539.992,321.039,60942
539.767,313.335,60918
539.543,305.625,61024
539.318,297.909,61012
539.094,290.186,60863
538.869,282.457,60804
538.644,274.722,60669
538.42,266.98,60676
538.195,259.231,60317
537.971,251.476,60105
537.746,243.715,60029
537.522,235.947,60011
537.297,228.172,60033
537.073,220.392,60022
536.848,212.604,59982
553.339,767.734,60118
553.114,760.398,60093
552.89,753.056,60057
552.665,745.708,60083
552.441,738.354,60061
552.216,730.994,60125
551.992,723.628,60116
551.767,716.255,60127
551.543,708.877,60129
551.318,701.493,60199
551.094,694.103,60196
550.869,686.707,60188
550.644,679.305,60279
550.42,671.897,60269
550.195,664.482,60295
549.971,657.062,60193
549.746,649.636,60239
549.522,642.203,60339
549.297,634.765,60448
549.073,627.32,60388
548.848,619.869,60396
548.624,612.413,60246
548.399,604.95,60411
548.175,597.481,60224
547.95,590.006,60155
547.726,582.524,60143
547.501,575.037,60195
547.277,567.543,60214
547.052,560.044,60244
546.827,552.538,60416
546.603,545.026,60653
546.378,537.508,60982
546.154,529.983,63204
545.929,522.453,115988
545.705,514.916,67607
545.48,507.373,61391
545.256,499.824,60746
545.031,492.268,60577
544.807,484.707,60430
544.582,477.139,60281
544.358,469.565,60234
544.133,461.985,60228
543.909,454.398,60336
543.684,446.805,60302
543.459,439.206,60314
543.235,431.601,60456
543.01,423.989,60390
542.786,416.371,60381
542.561,408.746,60457
542.337,401.116,60427
542.112,393.479,60426
541.888,385.836,60373
541.663,378.186,60459
541.439,370.53,60346
541.214,362.868,60491
540.99,355.199,60557
540.765,347.524,60538
540.541,339.842,60604
540.316,332.155,60712
540.091,324.46,60956
539.867,316.76,60960
539.642,309.053,60877
539.418,301.339,61018
539.193,293.62,60878
538.969,285.893,60742
538.744,278.161,60749
538.52,270.421,60915
538.295,262.676,60510
538.071,254.924,60099
537.846,247.165,60016
537.622,239.4,59948
537.397,231.629,59973
537.173,223.851,60064
536.948,216.066,60034
536.723,208.275,60071
553.214,763.659,60154
552.99,756.32,60127
552.765,748.974,60156
552.541,741.623,60049
552.316,734.266,60142
552.091,726.902,60134
551.867,719.533,60207
551.642,712.157,60136
551.418,704.776,60174
551.193,697.388,60114
550.969,689.995,60223
550.744,682.595,60184
550.52,675.19,60230
550.295,667.778,60239
550.071,660.361,60328
549.846,652.937,60269
549.622,645.507,60273
549.397,638.072,60419
549.173,630.63,60368
548.948,623.182,60405
548.723,615.728,60418
548.499,608.267,60199
548.274,600.801,60273
548.05,593.329,60296
547.825,585.85,60222
547.601,578.365,60203
547.376,570.875,60135
547.152,563.378,60172
546.927,555.875,60270
546.703,548.365,60498
546.478,540.85,60747
546.254,533.328,61657
546.029,525.8,74716
545.805,518.266,86605
545.58,510.726,62400
545.356,503.18,60907
545.131,495.627,60544
544.906,488.068,60379
544.682,480.503,60299
544.457,472.932,60283
544.233,465.354,60218
544.008,457.771,60244
543.784,450.18,60301
543.559,442.584,60361
543.335,434.981,60398
543.11,427.373,60329
542.886,419.757,60446
542.661,412.136,60377
542.437,404.508,60425
542.212,396.874,60379
541.988,389.233,60455
541.763,381.587,60344
541.538,373.933,60415
541.314,366.274,60460
541.089,358.608,60434
540.865,350.936,60571
540.64,343.257,60550
540.416,335.572,60670
540.191,327.881,60916
539.967,320.183,60934
539.742,312.479,60827
539.518,304.768,61110
539.293,297.051,60956
539.069,289.328,60713
538.844,281.598,60639
538.62,273.862,60760
538.395,266.119,60632
538.17,258.37,60347
537.946,250.614,60117
537.721,242.852,60025
537.497,235.083,59923
537.272,227.308,60003
537.048,219.527,60061
536.823,211.738,60012
536.661,206.11,59977

File: Si_onTiO2_40mA_30mW_30sec_5acc_517nm.txt
Wavelength(nm), Raman shift(cm^-1), Intensity(counts)
525.364,-194.586,62656
525.077,-204.986,62896
524.79,-215.398,62878
524.503,-225.821,63036
524.216,-236.256,62951
523.929,-246.702,63176
523.642,-257.159,63288
523.356,-267.628,64340
523.069,-278.109,67030
522.782,-288.6,68663
522.495,-299.104,69065
522.208,-309.619,68353
521.921,-320.145,68292
521.634,-330.684,68121
521.347,-341.233,67469
521.06,-351.795,67516
520.773,-362.368,67361
520.486,-372.952,67108
520.2,-383.548,66866
519.913,-394.156,66685
519.626,-404.776,66615
519.339,-415.408,66427
519.052,-426.051,66063
518.765,-436.706,65810
518.478,-447.373,65512
518.191,-458.051,65664
517.904,-468.742,65556
517.617,-479.444,65779
517.331,-490.158,67078
517.044,-500.884,74973
516.757,-511.622,68584
516.47,-522.372,65581
516.183,-533.134,64917
515.896,-543.907,64793
515.609,-554.693,64639
515.322,-565.491,64463
515.035,-576.301,64413
514.748,-587.123,64579
514.462,-597.957,64533
514.175,-608.803,64402
513.888,-619.661,64239
513.601,-630.531,64197
513.314,-641.413,64014
513.027,-652.308,63882
512.74,-663.215,64068
512.453,-674.134,64068
512.166,-685.065,63844
511.879,-696.008,63524
511.593,-706.964,63578
511.306,-717.932,63499
511.019,-728.913,63518
510.732,-739.905,63499
510.445,-750.91,63434
510.158,-761.928,63335
509.871,-772.958,63244
509.584,-784,63227
509.297,-795.055,62991
509.01,-806.122,63195
508.723,-817.201,63106
525.152,-202.272,63038
524.865,-212.681,63087
524.578,-223.101,63088
524.291,-233.532,63062
524.004,-243.976,63187
523.717,-254.43,63250
523.43,-264.896,63663
523.143,-275.373,66238
522.857,-285.862,68490
522.57,-296.363,68959
522.283,-306.875,68935
521.996,-317.398,68435
521.709,-327.933,68266
521.422,-338.48,67821
521.135,-349.038,67522
520.848,-359.608,67548
520.561,-370.19,67020
520.274,-380.783,66834
519.988,-391.388,66975
519.701,-402.005,66913
519.414,-412.633,66503
519.127,-423.273,66377
518.84,-433.925,65939
518.553,-444.589,65634
518.266,-455.264,65718
517.979,-465.952,65721
517.692,-476.651,65798
517.405,-487.362,66596
517.119,-498.085,72301
516.832,-508.82,70870
516.545,-519.566,65922
516.258,-530.325,65086
515.971,-541.096,64855
515.684,-551.878,64720
515.397,-562.673,64733
515.11,-573.48,64466
514.823,-584.298,64578
514.536,-595.129,64454
514.249,-605.972,64417
513.963,-616.827,64393
513.676,-627.694,64296
513.389,-638.573,64449
513.102,-649.465,64016
512.815,-660.368,63969
512.528,-671.284,63924
512.241,-682.212,63734
511.954,-693.152,63639
511.667,-704.105,63699
511.38,-715.07,63756
511.094,-726.047,63577
510.807,-737.036,63505
510.52,-748.038,63594
510.233,-759.052,63537
509.946,-770.079,63257
509.659,-781.118,63224
509.372,-792.17,63150
509.085,-803.233,63150
508.798,-814.31,63201
525.227,-199.558,62906
524.94,-209.964,62851
524.653,-220.381,62956
524.366,-230.81,62910
524.079,-241.25,63023
523.792,-251.702,63129
523.505,-262.165,66579
523.218,-272.639,65375
522.931,-283.125,67920
522.644,-293.622,68779
522.358,-304.131,68674
522.071,-314.652,68371
521.784,-325.184,68168
521.497,-335.728,67861
521.21,-346.283,67582
520.923,-356.85,67316
520.636,-367.428,67079
520.349,-378.019,66825
520.062,-388.62,66630
519.775,-399.234,66603
519.489,-409.859,66306
519.202,-420.496,66068
518.915,-431.145,65844
518.628,-441.806,65629
518.341,-452.478,65461
518.054,-463.163,65552
517.767,-473.859,65591
517.48,-484.567,66272
517.193,-495.286,69565
516.906,-506.018,73706
516.62,-516.762,66385
516.333,-527.517,65216
516.046,-538.285,64807
515.759,-549.064,64488
515.472,-559.856,64438
515.185,-570.659,64438
514.898,-581.475,64293
514.611,-592.303,64643
514.324,-603.142,64441
514.037,-613.994,64327
513.751,-624.858,64201
513.464,-635.734,64200
513.177,-646.622,64152
512.89,-657.523,64116
512.603,-668.435,64009
512.316,-679.36,63690
512.029,-690.297,63635
511.742,-701.247,63604
511.455,-712.208,63547
511.168,-723.182,63500
510.881,-734.168,63465
510.595,-745.167,63228
510.308,-756.178,63277
510.021,-767.201,63244
509.734,-778.237,63231
509.447,-789.285,63078
509.16,-800.346,63202
508.873,-811.419,62899
525.301,-196.846,62822
525.015,-207.249,62788
524.728,-217.663,63158
524.441,-228.088,63089
524.154,-238.526,63084
523.867,-248.974,63191
523.58,-259.434,63339
523.293,-269.905,65118
523.006,-280.388,67731
522.719,-290.883,69139
522.432,-301.389,69114
522.146,-311.906,68694
521.859,-322.435,68384
521.572,-332.976,68166
521.285,-343.528,67687
520.998,-354.092,67647
520.711,-364.668,67561
520.424,-375.255,67311
520.137,-385.854,67049
519.85,-396.464,66912
519.563,-407.086,66585
519.277,-417.72,66482
518.99,-428.366,66154
518.703,-439.024,66036
518.416,-449.693,65862
518.129,-460.374,65599
517.842,-471.067,65789
517.555,-481.772,66128
517.268,-492.489,68035
516.981,-503.217,75595
516.694,-513.958,67623
516.407,-524.71,65462
516.121,-535.475,65125
515.834,-546.251,64970
515.547,-557.039,64820
515.26,-567.84,64602
514.973,-578.652,64580
514.686,-589.477,64617
514.399,-600.313,64725
514.112,-611.162,64501
513.825,-622.023,64353
513.538,-632.896,64368
513.252,-643.781,64126
512.965,-654.678,64048
512.678,-665.587,64117
512.391,-676.509,63908
512.104,-687.443,63849
511.817,-698.389,63682
511.53,-709.347,63699
511.243,-720.318,63511
510.956,-731.301,63546
510.669,-742.297,63632
510.383,-753.304,63543
510.096,-764.325,63406
509.809,-775.357,63469
509.522,-786.402,63268
509.235,-797.459,63287
508.948,-808.529,63101
508.661,-819.612,63117
525.089,-204.534,62819
524.802,-214.945,62803
524.516,-225.368,62941
524.229,-235.802,63019
523.942,-246.247,63182
523.655,-256.704,63220
523.368,-267.173,64426
523.081,-277.653,66953
522.794,-288.144,68807
522.507,-298.647,68877
522.22,-309.161,68435
521.933,-319.687,68132
521.647,-330.225,67963
521.36,-340.774,67786
521.073,-351.335,67614
520.786,-361.908,67412
520.499,-372.492,67247
520.212,-383.088,66842
519.925,-393.695,66773
519.638,-404.314,66634
519.351,-414.945,66466
519.064,-425.588,66132
518.778,-436.242,65946
518.491,-446.909,65383
518.204,-457.587,65604
517.917,-468.277,65565
517.63,-478.978,65941
517.343,-489.692,66893
517.056,-500.417,74531
516.769,-511.155,68863
516.482,-521.904,65680
516.195,-532.665,65035
515.909,-543.439,64761
515.622,-554.224,64733
515.335,-565.021,64419
515.048,-575.831,64505
514.761,-586.652,64486
514.474,-597.485,64462
514.187,-608.331,64380
513.9,-619.188,64421
513.613,-630.058,64234
513.326,-640.94,64054
513.04,-651.834,64088
512.753,-662.74,63885
512.466,-673.659,63861
512.179,-684.589,63999
511.892,-695.532,63608
511.605,-706.488,63546
511.318,-717.455,63458
511.031,-728.435,63527
510.744,-739.427,63440
510.457,-750.432,63351
510.17,-761.448,63358
509.884,-772.478,63361
509.597,-783.52,63334
509.31,-794.574,63048
509.023,-805.64,63114
508.736,-816.719,63043
508.661,-819.612,62921

File: Si_onTiO2_50mA_30mW_30sec_3acc_517nm_bg.txt
Wavelength(nm), Raman shift(cm^-1), Intensity(counts)
525.364,-194.586,63117
525.189,-200.915,63313
525.015,-207.249,63448
524.84,-213.586,63531
524.665,-219.928,63485
524.491,-226.275,63508
524.316,-232.625,63506
524.141,-238.98,63600
523.967,-245.339,63612
523.792,-251.702,63805
523.617,-258.069,63975
523.443,-264.441,64216
523.268,-270.817,64871
523.094,-277.197,66360
522.919,-283.581,67286
522.744,-289.97,67944
522.57,-296.363,68108
522.395,-302.76,67705
522.22,-309.161,67843
522.046,-315.567,67768
521.871,-321.977,67585
521.696,-328.392,67430
521.522,-334.81,67436
521.347,-341.233,67630
521.173,-347.66,67264
520.998,-354.092,67102
520.823,-360.528,67114
520.649,-366.968,66864
520.474,-373.413,66777
520.299,-379.861,66573
520.125,-386.315,66646
519.95,-392.772,66597
519.775,-399.234,66390
519.601,-405.7,66428
519.426,-412.171,66086
519.252,-418.646,65952
519.077,-425.125,65801
518.902,-431.609,65695
518.728,-438.096,65628
518.553,-444.589,65428
518.378,-451.086,65125
518.204,-457.587,65251
518.029,-464.092,64815
517.854,-470.602,64869
517.68,-477.116,64793
517.505,-483.635,64843
517.331,-490.158,64742
517.156,-496.685,64823
516.981,-503.217,64731
516.807,-509.754,64587
516.632,-516.294,64432
516.457,-522.839,64517
516.283,-529.389,64505
516.108,-535.943,64399
515.933,-542.501,64435
515.759,-549.064,64437
515.584,-555.632,64381
515.41,-562.203,64288
515.235,-568.78,64487
515.06,-575.36,64237
514.886,-581.945,64385
514.711,-588.535,64160
514.536,-595.129,64320
514.362,-601.728,64291
514.187,-608.331,64185
514.012,-614.938,64134
513.838,-621.55,64190
513.663,-628.167,64006
513.489,-634.788,63956
513.314,-641.413,63881
513.139,-648.043,63893
512.965,-654.678,63845
512.79,-661.317,63994
512.615,-667.961,63717
512.441,-674.609,63729
512.266,-681.261,63560
512.091,-687.919,63522
511.917,-694.58,63731
511.742,-701.247,63470
511.568,-707.917,63578
511.393,-714.593,63415
511.218,-721.273,63443
511.044,-727.957,63499
510.869,-734.646,63414
510.694,-741.34,63346
510.52,-748.038,63398
510.345,-754.741,63233
510.17,-761.448,63216
509.996,-768.161,63217
509.821,-774.877,63042
509.647,-781.598,63222
509.472,-788.324,63125
509.297,-795.055,62921
509.123,-801.79,62903
508.948,-808.529,62874
508.773,-815.274,62955
525.314,-196.394,63292
525.139,-202.724,63375
524.965,-209.059,63433
524.79,-215.398,63414
524.615,-221.741,63237
524.441,-228.088,63480
524.266,-234.44,63649
524.091,-240.796,63411
523.917,-247.156,63674
523.742,-253.52,63590
523.568,-259.889,63786
523.393,-266.262,64177
523.218,-272.639,65140
523.044,-279.02,66412
522.869,-285.406,67311
522.694,-291.796,67762
522.52,-298.19,67811
522.345,-304.589,67907
522.17,-310.991,67758
521.996,-317.398,67458
521.821,-323.81,67481
521.647,-330.225,67468
521.472,-336.645,67161
521.297,-343.069,67131
521.123,-349.498,67019
520.948,-355.93,66820
520.773,-362.368,66742
520.599,-368.809,66758
520.424,-375.255,66749
520.249,-381.705,66636
520.075,-388.159,66520
519.9,-394.618,66298
519.726,-401.081,66124
519.551,-407.548,66040
519.376,-414.02,65897
519.202,-420.496,65864
519.027,-426.977,65564
518.852,-433.462,65431
518.678,-439.951,65380
518.503,-446.445,65215
518.328,-452.943,65058
518.154,-459.445,64964
517.979,-465.952,64831
517.805,-472.463,64641
517.63,-478.978,64658
517.455,-485.498,64568
517.281,-492.023,64660
517.106,-498.551,64527
516.931,-505.084,64493
516.757,-511.622,64539
516.582,-518.164,64370
516.407,-524.71,64458
516.233,-531.261,64458
516.058,-537.816,64403
515.884,-544.376,64219
515.709,-550.94,64329
515.534,-557.509,63981
515.36,-564.082,64333
515.185,-570.659,64207
515.01,-577.241,64247
514.836,-583.828,64113
514.661,-590.419,64216
514.486,-597.014,64237
514.312,-603.614,64135
514.137,-610.218,63980
513.963,-616.827,63875
513.788,-623.44,64061
513.613,-630.058,63837
513.439,-636.68,63944
513.264,-643.307,63656
513.089,-649.939,63678
512.915,-656.574,63776
512.74,-663.215,63681
512.565,-669.86,63598
512.391,-676.509,63676
512.216,-683.163,63461
512.042,-689.821,63583
511.867,-696.485,63622
511.692,-703.152,63358
511.518,-709.824,63344
511.343,-716.501,63471
511.168,-723.182,63318
510.994,-729.868,63506
510.819,-736.558,63258
510.644,-743.253,63184
510.47,-749.953,63155
510.295,-756.657,63221
510.121,-763.366,63150
509.946,-770.079,63114
509.771,-776.797,63023
509.597,-783.52,62943
509.422,-790.247,62832
509.247,-796.978,62855
509.073,-803.715,62908
508.898,-810.456,62760
508.723,-817.201,62963
525.264,-198.202,63303
525.089,-204.534,63400
524.915,-210.87,63306
524.74,-217.21,63439
524.565,-223.554,63508
524.391,-229.903,63405
524.216,-236.256,63373
524.042,-242.613,63553
523.867,-248.974,63566
523.692,-255.34,63668
523.518,-261.709,63700
523.343,-268.084,64508
523.168,-274.462,65375
522.994,-280.844,66651
522.819,-287.231,67227
522.644,-293.622,67007
522.47,-300.018,67615
522.295,-306.417,67402
522.121,-312.821,67335
521.946,-319.23,67255
521.771,-325.642,67101
521.597,-332.059,67006
521.422,-338.48,66932
521.247,-344.905,67030
521.073,-351.335,66989
520.898,-357.769,66616
520.723,-364.208,66574
520.549,-370.65,66360
520.374,-377.097,66298
520.2,-383.548,66042
520.025,-390.004,66166
519.85,-396.464,66014
519.676,-402.928,65860
519.501,-409.397,65769
519.326,-415.87,65650
519.152,-422.348,65547
518.977,-428.829,65246
518.802,-435.315,65036
518.628,-441.806,65202
518.453,-448.301,64830
518.279,-454.8,64986
518.104,-461.304,64785
517.929,-467.812,64664
517.755,-474.324,64440
517.58,-480.841,64417
517.405,-487.362,64303
517.231,-493.887,64417
517.056,-500.417,64217
516.881,-506.952,64261
516.707,-513.491,64356
516.532,-520.034,64258
516.358,-526.582,64366
516.183,-533.134,64148
516.008,-539.69,64234
515.834,-546.251,64216
515.659,-552.817,64078
515.484,-559.386,63969
515.31,-565.961,64042
515.135,-572.539,64060
514.96,-579.123,64005
514.786,-585.71,64074
514.611,-592.303,63915
514.437,-598.899,63977
514.262,-605.5,63904
514.087,-612.106,64134
513.913,-618.716,63825
513.738,-625.331,63866
513.563,-631.95,63751
513.389,-638.573,63653
513.214,-645.201,63688
513.04,-651.834,63717
512.865,-658.471,63770
512.69,-665.113,63534
512.516,-671.759,63411
512.341,-678.41,63569
512.166,-685.065,63440
511.992,-691.725,63320
511.817,-698.389,63224
511.642,-705.058,63225
511.468,-711.731,63190
511.293,-718.409,63181
511.119,-725.092,63126
510.944,-731.779,63239
510.769,-738.471,63124
510.595,-745.167,63029
510.42,-751.868,63151
510.245,-758.573,63045
510.071,-765.283,62964
509.896,-771.998,62904
509.721,-778.717,63014
509.547,-785.441,62923
509.372,-792.17,62786
509.198,-798.903,62845
509.023,-805.64,62772
508.848,-812.383,62732
508.674,-819.13,62681
508.661,-819.612,62723