Folder: flash_scratch/tomke/20240809/raw_data (part 2)

File: Si_onTiO2_0mA_30mW_30sec_5acc_517nm.txt
Wavelength(nm), Raman shift(cm^-1), Intensity(counts)
525.364,-194.586,59823
525.077,-204.986,60001
524.79,-215.398,60025
524.503,-225.821,59977
524.216,-236.256,59981
523.929,-246.702,60003
523.642,-257.159,60038
523.356,-267.628,60108
523.069,-278.109,60132
522.782,-288.6,60137
522.495,-299.104,60280
522.208,-309.619,60279
521.921,-320.145,60154
521.634,-330.684,60077
521.347,-341.233,60122
521.06,-351.795,60159
520.773,-362.368,60149
520.486,-372.952,60113
520.2,-383.548,60009
519.913,-394.156,60103
519.626,-404.776,60118
519.339,-415.408,60067
519.052,-426.051,59994
518.765,-436.706,60063
518.478,-447.373,59977
518.191,-458.051,60017
517.904,-468.742,60061
517.617,-479.444,60065
517.331,-490.158,60073
517.044,-500.884,60168
516.757,-511.622,60490
516.47,-522.372,64798
516.183,-533.134,60206
515.896,-543.907,60014
515.609,-554.693,59935
515.322,-565.491,60026
515.035,-576.301,60045
514.748,-587.123,60052
514.462,-597.957,60085
514.175,-608.803,60004
513.888,-619.661,60022
513.601,-630.531,60072
513.314,-641.413,60053
513.027,-652.308,59995
512.74,-663.215,60009
512.453,-674.134,60043
512.166,-685.065,59972
511.879,-696.008,59991
511.593,-706.964,60054
511.306,-717.932,59965
511.019,-728.913,60049
510.732,-739.905,60029
510.445,-750.91,59972
510.158,-761.928,60014
509.871,-772.958,60024
509.584,-784,59996
509.297,-795.055,59997
509.01,-806.122,59925
508.723,-817.201,59990
525.152,-202.272,60013
524.865,-212.681,60075
524.578,-223.101,59978
524.291,-233.532,60001
524.004,-243.976,59928
523.717,-254.43,59970
523.43,-264.896,59971
523.143,-275.373,60155
522.857,-285.862,60145
522.57,-296.363,60207
522.283,-306.875,60202
521.996,-317.398,60246
521.709,-327.933,60102
521.422,-338.48,60121
521.135,-349.038,60015
520.848,-359.608,60129
520.561,-370.19,60115
520.274,-380.783,60075
519.988,-391.388,60099
519.701,-402.005,60084
519.414,-412.633,60012
519.127,-423.273,60064
518.84,-433.925,60073
518.553,-444.589,60022
518.266,-455.264,60040
517.979,-465.952,60046
517.692,-476.651,60120
517.405,-487.362,59991
517.119,-498.085,60057
516.832,-508.82,60188
516.545,-519.566,66658
516.258,-530.325,60312
515.971,-541.096,60120
515.684,-551.878,60037
515.397,-562.673,60035
515.11,-573.48,59995
514.823,-584.298,60106
514.536,-595.129,59990
514.249,-605.972,59951
513.963,-616.827,60063
513.676,-627.694,59938
513.389,-638.573,60063
513.102,-649.465,60028
512.815,-660.368,60069
512.528,-671.284,60055
512.241,-682.212,60034
511.954,-693.152,59987
511.667,-704.105,60036
511.38,-715.07,59955
511.094,-726.047,60007
510.807,-737.036,60003
510.52,-748.038,59938
510.233,-759.052,60019
509.946,-770.079,59983
509.659,-781.118,59985
509.372,-792.17,59935
509.085,-803.233,59986
508.798,-814.31,60015
525.227,-199.558,59952
524.94,-209.964,60004
524.653,-220.381,59953
524.366,-230.81,59996
524.079,-241.25,59962
523.792,-251.702,60035
523.505,-262.165,59973
523.218,-272.639,60082
522.931,-283.125,60114
522.644,-293.622,60282
522.358,-304.131,60260
522.071,-314.652,60129
521.784,-325.184,60189
521.497,-335.728,60163
521.21,-346.283,60067
520.923,-356.85,60117
520.636,-367.428,60099
520.349,-378.019,60046
520.062,-388.62,60035
519.775,-399.234,60037
519.489,-409.859,60048
519.202,-420.496,60030
518.915,-431.145,60116
518.628,-441.806,60060
518.341,-452.478,60053
518.054,-463.163,60029
517.767,-473.859,60032
517.48,-484.567,59970
517.193,-495.286,60064
516.906,-506.018,60102
516.62,-516.762,63274
516.333,-527.517,60867
516.046,-538.285,60110
515.759,-549.064,60111
515.472,-559.856,60040
515.185,-570.659,60058
514.898,-581.475,60061
514.611,-592.303,59975
514.324,-603.142,60107
514.037,-613.994,60089
513.751,-624.858,60019
513.464,-635.734,59903
513.177,-646.622,59991
512.89,-657.523,60041
512.603,-668.435,60018
512.316,-679.36,59920
512.029,-690.297,60043
511.742,-701.247,60056
511.455,-712.208,60022
511.168,-723.182,59969
510.881,-734.168,60012
510.595,-745.167,60073
510.308,-756.178,59973
510.021,-767.201,60010
509.734,-778.237,60001
509.447,-789.285,60018
509.16,-800.346,59942
508.873,-811.419,60095
525.301,-196.846,60087
525.015,-207.249,60028
524.728,-217.663,59996
524.441,-228.088,60060
524.154,-238.526,60018
523.867,-248.974,60013
523.58,-259.434,59965
523.293,-269.905,60065
523.006,-280.388,60139
522.719,-290.883,60159
522.432,-301.389,60192
522.146,-311.906,60205
521.859,-322.435,60164
521.572,-332.976,60113
521.285,-343.528,60203
520.998,-354.092,60140
520.711,-364.668,60089
520.424,-375.255,60130
520.137,-385.854,60101
519.85,-396.464,60099
519.563,-407.086,60011
519.277,-417.72,60056
518.99,-428.366,59968
518.703,-439.024,59982
518.416,-449.693,60109
518.129,-460.374,60053
517.842,-471.067,59994
517.555,-481.772,60056
517.268,-492.489,60080
516.981,-503.217,60077
516.694,-513.958,60794
516.407,-524.71,62323
516.121,-535.475,60205
515.834,-546.251,60053
515.547,-557.039,60046
515.26,-567.84,59986
514.973,-578.652,59967
514.686,-589.477,60043
514.399,-600.313,59950
514.112,-611.162,60073
513.825,-622.023,60074
513.538,-632.896,60102
513.252,-643.781,60047
512.965,-654.678,60060
512.678,-665.587,60002
512.391,-676.509,60010
512.104,-687.443,60060
511.817,-698.389,60002
511.53,-709.347,59973
511.243,-720.318,59972
510.956,-731.301,59932
510.669,-742.297,59981
510.383,-753.304,59988
510.096,-764.325,59990
509.809,-775.357,59886
509.522,-786.402,60001
509.235,-797.459,60043
508.948,-808.529,59988
508.661,-819.612,60009
525.089,-204.534,59899
524.802,-214.945,60050
524.516,-225.368,60035
524.229,-235.802,59908
523.942,-246.247,59986
523.655,-256.704,60033
523.368,-267.173,60034
523.081,-277.653,60086
522.794,-288.144,60116
522.507,-298.647,60216
522.22,-309.161,60119
521.933,-319.687,60201
521.647,-330.225,60119
521.36,-340.774,60041
521.073,-351.335,60092
520.786,-361.908,60202
520.499,-372.492,60139
520.212,-383.088,60053
519.925,-393.695,59959
519.638,-404.314,59996
519.351,-414.945,60036
519.064,-425.588,60049
518.778,-436.242,60081
518.491,-446.909,60024
518.204,-457.587,59980
517.917,-468.277,60048
517.63,-478.978,59994
517.343,-489.692,60057
517.056,-500.417,60109
516.769,-511.155,60290
516.482,-521.904,65478
516.195,-532.665,60209
515.909,-543.439,60032
515.622,-554.224,60052
515.335,-565.021,60048
515.048,-575.831,60018
514.761,-586.652,59964
514.474,-597.485,60001
514.187,-608.331,60008
513.9,-619.188,60011
513.613,-630.058,60058
513.326,-640.94,60000
513.04,-651.834,60011
512.753,-662.74,59998
512.466,-673.659,59949
512.179,-684.589,60042
511.892,-695.532,59996
511.605,-706.488,60012
511.318,-717.455,59956
511.031,-728.435,60010
510.744,-739.427,59934
510.457,-750.432,59977
510.17,-761.448,59977
509.884,-772.478,60077
509.597,-783.52,59991
509.31,-794.574,60007
509.023,-805.64,60027
508.736,-816.719,59991
508.661,-819.612,60050

File: Si_onTiO2_0mA_30mW_30sec_5acc_539nm.txt
Wavelength(nm), Raman shift(cm^-1), Intensity(counts)
547.364,570.458,59787
547.077,560.877,60281
546.79,551.286,60408
546.503,541.685,60748
546.216,532.074,63321
545.929,522.453,98416
545.642,512.821,61994
545.356,503.18,60709
545.069,493.528,60383
544.782,483.866,60270
544.495,474.194,60137
544.208,464.512,60116
543.921,454.82,60161
543.634,445.117,60234
543.347,435.404,60363
543.06,425.681,60334
542.773,415.947,60350
542.486,406.204,60291
542.2,396.45,60406
541.913,386.685,60425
541.626,376.91,60333
541.339,367.125,60282
541.052,357.33,60387
540.765,347.524,60331
540.478,337.708,60463
540.191,327.881,60520
539.904,318.044,60668
539.617,308.196,60826
539.331,298.338,60901
539.044,288.469,60730
538.757,278.59,60531
538.47,268.701,60370
538.183,258.801,60064
537.896,248.89,59999
537.609,238.969,59958
537.322,229.037,60008
537.035,219.094,60052
536.748,209.141,59961
536.462,199.177,59888
536.175,189.203,59971
535.888,179.218,59978
535.601,169.222,60040
535.314,159.215,59997
535.027,149.198,59940
534.74,139.17,59929
534.453,129.131,60022
534.166,119.082,59963
533.879,109.021,59946
533.593,98.9499,60046
533.306,88.8679,60023
533.019,78.775,59870
532.732,68.6713,60006
532.445,58.5566,59898
532.158,48.4311,60077
531.871,38.2946,60040
531.584,28.1472,59986
531.297,17.9888,59994
531.01,7.81945,60265
530.723,-2.3609,309396
547.152,563.378,60353
546.865,553.789,60299
546.578,544.191,60645
546.291,534.582,61931
546.004,524.964,107369
545.717,515.335,63713
545.43,505.696,60754
545.143,496.047,60492
544.857,486.388,60352
544.57,476.718,60244
544.283,467.039,60215
543.996,457.349,60187
543.709,447.649,60271
543.422,437.939,60358
543.135,428.218,60271
542.848,418.488,60282
542.561,408.746,60355
542.274,398.995,60277
541.988,389.233,60259
541.701,379.461,60348
541.414,369.679,60368
541.127,359.886,60485
540.84,350.083,60354
540.553,340.269,60417
540.266,330.445,60498
539.979,320.611,60697
539.692,310.766,60741
539.405,300.911,60939
539.119,291.045,60590
538.832,281.169,60634
538.545,271.282,60445
538.258,261.384,60146
537.971,251.476,60044
537.684,241.558,59951
537.397,231.629,59966
537.11,221.689,59938
536.823,211.738,59999
536.536,201.777,59911
536.249,191.806,59971
535.963,181.823,60005
535.676,171.83,59945
535.389,161.827,59989
535.102,151.812,59931
534.815,141.787,59960
534.528,131.751,59976
534.241,121.704,59984
533.954,111.647,59974
533.667,101.578,60031
533.38,91.4991,59962
533.094,81.409,59967
532.807,71.3081,59982
532.52,61.1963,59922
532.233,51.0736,59989
531.946,40.9399,60014
531.659,30.7954,59941
531.372,20.6399,60031
531.085,10.4734,60210
530.798,0.295901,958127
547.227,565.877,60183
546.94,556.292,60322
546.653,546.696,60577
546.366,537.09,61300
546.079,527.474,83698
545.792,517.848,69071
545.505,508.211,61028
545.218,498.565,60521
544.931,488.909,60347
544.644,479.242,60173
544.358,469.565,60133
544.071,459.878,60161
543.784,450.18,60258
543.497,440.473,60294
543.21,430.755,60305
542.923,421.027,60305
542.636,411.289,60402
542.349,401.54,60342
542.062,391.781,60284
541.775,382.012,60326
541.489,372.232,60346
541.202,362.442,60380
540.915,352.641,60392
540.628,342.83,60376
540.341,333.009,60512
540.054,323.178,60443
539.767,313.335,60738
539.48,303.483,61004
539.193,293.62,60719
538.906,283.746,60585
538.62,273.862,60677
538.333,263.967,60277
538.046,254.062,60008
537.759,244.146,59959
537.472,234.22,59977
537.185,224.283,59940
536.898,214.335,59872
536.611,204.377,60009
536.324,194.408,59985
536.037,184.429,60018
535.751,174.438,59926
535.464,164.437,60006
535.177,154.426,60010
534.89,144.403,59969
534.603,134.37,60009
534.316,124.326,59924
534.029,114.271,59984
533.742,104.206,60054
533.455,94.1295,60067
533.168,84.0422,59949
532.881,73.9442,59917
532.595,63.8352,60016
532.308,53.7153,60009
532.021,43.5846,59992
531.734,33.4428,60021
531.447,23.2902,60053
531.16,13.1266,60075
530.873,2.95196,216621
547.301,568.376,60325
547.015,558.793,60239
546.728,549.2,60488
546.441,539.597,60925
546.154,529.983,66820
545.867,520.36,80836
545.58,510.726,61483
545.293,501.083,60612
545.006,491.429,60401
544.719,481.765,60280
544.432,472.09,60162
544.146,462.406,60204
543.859,452.711,60252
543.572,443.006,60350
543.285,433.291,60299
542.998,423.566,60332
542.711,413.83,60376
542.424,404.084,60345
542.137,394.328,60402
541.85,384.561,60333
541.563,374.784,60352
541.277,364.997,60456
540.99,355.199,60376
540.703,345.391,60449
540.416,335.572,60446
540.129,325.743,60569
539.842,315.904,60626
539.555,306.054,60825
539.268,296.194,60653
538.981,286.323,60616
538.694,276.441,60655
538.407,266.549,60401
538.121,256.647,60204
537.834,246.734,60008
537.547,236.81,60081
537.26,226.876,59999
536.973,216.931,60021
536.686,206.976,60033
536.399,197.01,60033
536.112,187.033,60026
535.825,177.045,59990
535.538,167.047,60011
535.252,157.038,60037
534.965,147.019,60079
534.678,136.988,60059
534.391,126.947,60000
534.104,116.895,59976
533.817,106.833,60007
533.53,96.7591,60007
533.243,86.6747,60085
532.956,76.5795,59983
532.669,66.4734,60004
532.383,56.3563,59964
532.096,46.2284,60042
531.809,36.0896,60011
531.522,25.9398,60017
531.235,15.779,60033
530.948,5.60726,60500
530.661,-4.57548,76197
547.089,561.294,60244
546.802,551.704,60377
546.516,542.103,60762
546.229,532.492,63044
545.942,522.871,102401
545.655,513.24,62215
545.368,503.599,60691
545.081,493.948,60421
544.794,484.287,60270
544.507,474.615,60256
544.22,464.933,60110
543.933,455.241,60178
543.647,445.539,60305
543.36,435.827,60383
543.073,426.104,60350
542.786,416.371,60351
542.499,406.627,60339
542.212,396.874,60388
541.925,387.11,60279
541.638,377.336,60348
541.351,367.551,60384
541.064,357.756,60486
540.778,347.95,60377
540.491,338.135,60533
540.204,328.308,60409
539.917,318.472,60591
539.63,308.625,60790
539.343,298.767,60846
539.056,288.899,60618
538.769,279.02,60527
538.482,269.131,60306
538.195,259.231,60194
537.909,249.321,59962
537.622,239.4,59996
537.335,229.469,59952
537.048,219.527,60046
536.761,209.574,60006
536.474,199.611,59951
536.187,189.637,59951
535.9,179.652,60022
535.613,169.657,59901
535.326,159.65,59967
535.04,149.634,59885
534.753,139.606,59987
534.466,129.568,60005
534.179,119.519,60017
533.892,109.459,59978
533.605,99.3881,59982
533.318,89.3065,60014
533.031,79.2141,59874
532.744,69.1108,60050
532.457,58.9966,59937
532.17,48.8715,60026
531.884,38.7355,59972
531.597,28.5886,60051
531.31,18.4307,60049
531.023,8.26182,60194
530.736,-1.91805,482895
530.661,-4.57548,76271

File: Si_onTiO2_0mA_30mW_30sec_5acc_545nm.txt
Wavelength(nm), Raman shift(cm^-1), Intensity(counts)
553.364,768.549,59802
553.077,759.175,60195
552.79,749.791,60156
552.503,740.397,60215
552.216,730.994,60112
551.929,721.58,60049
551.642,712.157,60108
551.356,702.724,60184
551.069,693.282,60224
550.782,683.829,60254
550.495,674.367,60244
550.208,664.894,60226
549.921,655.412,60221
549.634,645.92,60215
549.347,636.418,60277
549.06,626.906,60337
548.773,617.385,60377
548.486,607.853,60253
548.2,598.311,60131
547.913,588.759,60171
547.626,579.197,60168
547.339,569.626,60191
547.052,560.044,60277
546.765,550.452,60353
546.478,540.85,60719
546.191,531.238,62218
545.904,521.616,114383
545.617,511.983,63480
545.331,502.341,60841
545.044,492.688,60565
544.757,483.026,60306
544.47,473.353,60236
544.183,463.67,60157
543.896,453.976,60233
543.609,444.273,60367
543.322,434.559,60412
543.035,424.835,60301
542.748,415.1,60416
542.462,405.356,60364
542.175,395.601,60347
541.888,385.836,60410
541.601,376.06,60411
541.314,366.274,60412
541.027,356.478,60373
540.74,346.671,60439
540.453,336.854,60501
540.166,327.026,60519
539.879,317.188,60670
539.593,307.339,60973
539.306,297.48,60976
539.019,287.611,60774
538.732,277.731,60657
538.445,267.84,60416
538.158,257.939,60141
537.871,248.028,59969
537.584,238.105,59910
537.297,228.172,60077
537.01,218.229,60035
536.723,208.275,60027
553.152,761.621,60128
552.865,752.24,60146
552.578,742.849,60173
552.291,733.448,60190
552.004,724.037,60073
551.717,714.616,60091
551.43,705.186,60213
551.143,695.746,60078
550.857,686.296,60218
550.57,676.836,60208
550.283,667.366,60379
549.996,657.887,60154
549.709,648.397,60195
549.422,638.898,60177
549.135,629.389,60445
548.848,619.869,60297
548.561,610.34,60327
548.274,600.801,60143
547.988,591.252,60170
547.701,581.693,60101
547.414,572.124,60189
547.127,562.544,60291
546.84,552.955,60377
546.553,543.356,60620
546.266,533.746,61500
545.979,524.127,87422
545.692,514.497,68584
545.405,504.857,60979
545.119,495.207,60554
544.832,485.547,60287
544.545,475.877,60303
544.258,466.197,60190
543.971,456.506,60152
543.684,446.805,60227
543.397,437.094,60327
543.11,427.373,60379
542.823,417.641,60348
542.536,407.899,60372
542.249,398.147,60346
541.963,388.384,60388
541.676,378.611,60498
541.389,368.828,60434
541.102,359.034,60356
540.815,349.23,60551
540.528,339.416,60572
540.241,329.591,60541
539.954,319.755,60669
539.667,309.91,60731
539.38,300.053,61101
539.094,290.186,60683
538.807,280.309,60521
538.52,270.421,60540
538.233,260.523,60055
537.946,250.614,59976
537.659,240.695,60112
537.372,230.765,59981
537.085,220.824,60010
536.798,210.873,60015
553.227,764.067,60119
552.94,754.688,60200
552.653,745.299,60114
552.366,735.901,60023
552.079,726.493,60055
551.792,717.075,60065
551.505,707.647,60061
551.218,698.21,60144
550.931,688.762,60236
550.644,679.305,60260
550.358,669.838,60348
550.071,660.361,60231
549.784,650.874,60259
549.497,641.377,60175
549.21,631.87,60396
548.923,622.354,60362
548.636,612.827,60239
548.349,603.291,60264
548.062,593.744,60145
547.775,584.187,60169
547.489,574.621,60174
547.202,565.044,60269
546.915,555.458,60285
546.628,545.861,60567
546.341,536.254,61087
546.054,526.637,67533
545.767,517.01,81692
545.48,507.373,61533
545.193,497.726,60646
544.906,488.068,60440
544.62,478.401,60365
544.333,468.723,60256
544.046,459.035,60170
543.759,449.337,60305
543.472,439.628,60338
543.185,429.91,60384
542.898,420.181,60425
542.611,410.441,60317
542.324,400.692,60352
542.037,390.932,60417
541.751,381.162,60369
541.464,371.381,60467
541.177,361.59,60347
540.89,351.789,60386
540.603,341.977,60408
540.316,332.155,60480
540.029,322.322,60622
539.742,312.479,60655
539.455,302.625,61024
539.168,292.761,63614
538.881,282.887,60723
538.595,273.002,60586
538.308,263.106,60304
538.021,253.2,60029
537.734,243.283,60060
537.447,233.356,59956
537.16,223.418,59944
536.873,213.47,59921
553.301,766.512,60142
553.015,757.136,60079
552.728,747.75,60187
552.441,738.354,60132
552.154,728.948,60156
551.867,719.533,60092
551.58,710.107,60074
551.293,700.672,60221
551.006,691.228,60180
550.719,681.773,60258
550.432,672.308,60202
550.146,662.834,60136
549.859,653.35,60243
549.572,643.855,60211
549.285,634.351,60222
548.998,624.837,60287
548.711,615.313,60180
548.424,605.779,60215
548.137,596.235,60159
547.85,586.681,60147
547.563,577.117,60156
547.277,567.543,60293
546.99,557.959,60218
546.703,548.365,60437
546.416,538.761,60678
546.129,529.147,63383
545.842,519.523,106498
545.555,509.888,62231
545.268,500.243,60719
544.981,490.589,60361
544.694,480.924,60355
544.407,471.249,60319
544.121,461.563,60220
543.834,451.868,60230
543.547,442.162,60355
543.26,432.446,60400
542.973,422.72,60358
542.686,412.983,60312
542.399,403.236,60389
542.112,393.479,60407
541.825,383.711,60431
541.538,373.933,60444
541.252,364.145,60286
540.965,354.347,60504
540.678,344.537,60540
540.391,334.718,60464
540.104,324.888,60513
539.817,315.048,60577
539.53,305.197,60852
539.243,295.336,60826
538.956,285.464,60568
538.669,275.582,60598
538.383,265.689,60274
538.096,255.785,60178
537.809,245.871,59983
537.522,235.947,60052
537.235,226.012,59983
536.948,216.066,59925
536.661,206.11,59969
553.089,759.583,60138
552.802,750.199,60118
552.516,740.806,60242
552.229,731.403,60177
551.942,721.99,60168
551.655,712.567,60186
551.368,703.135,60076
551.081,693.692,60206
550.794,684.24,60241
550.507,674.778,60232
550.22,665.306,60162
549.933,655.825,60192
549.647,646.333,60246
549.36,636.832,60265
549.073,627.32,60383
548.786,617.799,60248
548.499,608.267,60153
548.212,598.726,60169
547.925,589.175,60160
547.638,579.613,60156
547.351,570.042,60140
547.064,560.461,60255
546.778,550.869,60383
546.491,541.268,60723
546.204,531.656,61934
545.917,522.034,110281
545.63,512.402,64151
545.343,502.76,61002
545.056,493.108,60504
544.769,483.446,60405
544.482,473.774,60231
544.195,464.091,60202
543.909,454.398,60183
543.622,444.695,60276
543.335,434.981,60453
543.048,425.258,60448
542.761,415.524,60358
542.474,405.78,60323
542.187,396.025,60373
541.9,386.26,60341
541.613,376.485,60482
541.326,366.7,60486
541.04,356.904,60489
540.753,347.097,60442
540.466,337.281,60481
540.179,327.453,60518
539.892,317.616,60623
539.605,307.768,60960
539.318,297.909,61013
539.031,288.04,60757
538.744,278.161,60612
538.457,268.271,60506
538.17,258.37,60097
537.884,248.459,60100
537.597,238.537,59979
537.31,228.605,60067
537.023,218.662,59970
536.736,208.708,59983
536.661,206.11,60083