Folder: flash_scratch/tomke/20240809/raw_data (part 6)

File: Si_onTiO2_80mA_30mW_30sec_5acc_545nm.txt
Wavelength(nm), Raman shift(cm^-1), Intensity(counts)
553.364,768.549,294552
553.077,759.175,294178
552.79,749.791,293047
552.503,740.397,290489
552.216,730.994,289457
551.929,721.58,289038
551.642,712.157,289126
551.356,702.724,288822
551.069,693.282,288491
550.782,683.829,285781
550.495,674.367,284065
550.208,664.894,283157
549.921,655.412,281103
549.634,645.92,280897
549.347,636.418,280316
549.06,626.906,279660
548.773,617.385,279489
548.486,607.853,275841
548.2,598.311,272995
547.913,588.759,268428
547.626,579.197,265199
547.339,569.626,264192
547.052,560.044,264628
546.765,550.452,262905
546.478,540.85,261918
546.191,531.238,260127
545.904,521.616,256421
545.617,511.983,254554
545.331,502.341,261674
545.044,492.688,257672
544.757,483.026,253318
544.47,473.353,252331
544.183,463.67,250705
543.896,453.976,247103
543.609,444.273,245131
543.322,434.559,242660
543.035,424.835,241986
542.748,415.1,243528
542.462,405.356,243808
542.175,395.601,240385
541.888,385.836,237802
541.601,376.06,235681
541.314,366.274,234690
541.027,356.478,234366
540.74,346.671,232685
540.453,336.854,225736
540.166,327.026,220406
539.879,317.188,218609
539.593,307.339,221610
539.306,297.48,216178
539.019,287.611,201249
538.732,277.731,197953
538.445,267.84,166277
538.158,257.939,91561
537.871,248.028,68754
537.584,238.105,64981
537.297,228.172,64260
537.01,218.229,63931
536.723,208.275,63858
553.152,761.621,283565
552.865,752.24,283922
552.578,742.849,280420
552.291,733.448,278915
552.004,724.037,278411
551.717,714.616,277741
551.43,705.186,278542
551.143,695.746,278487
550.857,686.296,276551
550.57,676.836,274073
550.283,667.366,272128
549.996,657.887,270790
549.709,648.397,270354
549.422,638.898,270337
549.135,629.389,270549
548.848,619.869,269439
548.561,610.34,267244
548.274,600.801,264328
547.988,591.252,260568
547.701,581.693,257384
547.414,572.124,255782
547.127,562.544,254899
546.84,552.955,254716
546.553,543.356,253455
546.266,533.746,250489
545.979,524.127,249038
545.692,514.497,245865
545.405,504.857,250259
545.119,495.207,250682
544.832,485.547,244785
544.545,475.877,243546
544.258,466.197,242117
543.971,456.506,239757
543.684,446.805,236779
543.397,437.094,234264
543.11,427.373,232920
542.823,417.641,233923
542.536,407.899,234390
542.249,398.147,234181
541.963,388.384,231245
541.676,378.611,229176
541.389,368.828,226510
541.102,359.034,225521
540.815,349.23,224333
540.528,339.416,220408
540.241,329.591,213924
539.954,319.755,212075
539.667,309.91,213836
539.38,300.053,211083
539.094,290.186,198233
538.807,280.309,190881
538.52,270.421,178148
538.233,260.523,105034
537.946,250.614,70801
537.659,240.695,65407
537.372,230.765,64237
537.085,220.824,63691
536.798,210.873,63708
553.227,764.067,284585
552.94,754.688,283349
552.653,745.299,282742
552.366,735.901,279896
552.079,726.493,279299
551.792,717.075,279509
551.505,707.647,279500
551.218,698.21,279207
550.931,688.762,278727
550.644,679.305,276902
550.358,669.838,274909
550.071,660.361,271156
549.784,650.874,271409
549.497,641.377,270858
549.21,631.87,271272
548.923,622.354,271164
548.636,612.827,268100
548.349,603.291,266462
548.062,593.744,262719
547.775,584.187,258664
547.489,574.621,256353
547.202,565.044,256411
546.915,555.458,255088
546.628,545.861,253993
546.341,536.254,252129
546.054,526.637,250228
545.767,517.01,248113
545.48,507.373,249222
545.193,497.726,254506
544.906,488.068,247033
544.62,478.401,244914
544.333,468.723,244334
544.046,459.035,241390
543.759,449.337,237539
543.472,439.628,235231
543.185,429.91,234219
542.898,420.181,234273
542.611,410.441,236463
542.324,400.692,234644
542.037,390.932,231832
541.751,381.162,230032
541.464,371.381,226813
541.177,361.59,226819
540.89,351.789,225689
540.603,341.977,222949
540.316,332.155,216373
540.029,322.322,212624
539.742,312.479,213573
539.455,302.625,213609
539.168,292.761,204076
538.881,282.887,192542
538.595,273.002,189409
538.308,263.106,123667
538.021,253.2,74934
537.734,243.283,65997
537.447,233.356,64357
537.16,223.418,63908
536.873,213.47,63975
553.301,766.512,287639
553.015,757.136,286168
552.728,747.75,284016
552.441,738.354,282038
552.154,728.948,281285
551.867,719.533,280636
551.58,710.107,280010
551.293,700.672,279045
551.006,691.228,280624
550.719,681.773,276978
550.432,672.308,275052
550.146,662.834,274684
549.859,653.35,271661
549.572,643.855,271965
549.285,634.351,271907
548.998,624.837,271920
548.711,615.313,269618
548.424,605.779,268460
548.137,596.235,264534
547.85,586.681,261403
547.563,577.117,257954
547.277,567.543,256826
546.99,557.959,257477
546.703,548.365,256339
546.416,538.761,254568
546.129,529.147,251622
545.842,519.523,248495
545.555,509.888,249266
545.268,500.243,255568
544.981,490.589,248368
544.694,480.924,246300
544.407,471.249,244220
544.121,461.563,243468
543.834,451.868,240111
543.547,442.162,237467
543.26,432.446,235624
542.973,422.72,234947
542.686,412.983,236217
542.399,403.236,235587
542.112,393.479,234379
541.825,383.711,230937
541.538,373.933,228018
541.252,364.145,228040
540.965,354.347,227795
540.678,344.537,224380
540.391,334.718,218182
540.104,324.888,213830
539.817,315.048,213491
539.53,305.197,214184
539.243,295.336,207516
538.956,285.464,193905
538.669,275.582,192389
538.383,265.689,144584
538.096,255.785,81867
537.809,245.871,66891
537.522,235.947,64771
537.235,226.012,64153
536.948,216.066,63836
536.661,206.11,63657
553.089,759.583,287753
552.802,750.199,285211
552.516,740.806,283715
552.229,731.403,282549
551.942,721.99,280940
551.655,712.567,280885
551.368,703.135,280592
551.081,693.692,280712
550.794,684.24,279443
550.507,674.778,278532
550.22,665.306,275385
549.933,655.825,273338
549.647,646.333,272496
549.36,636.832,272496
549.073,627.32,273936
548.786,617.799,271757
548.499,608.267,269615
548.212,598.726,266114
547.925,589.175,262810
547.638,579.613,260720
547.351,570.042,258636
547.064,560.461,257781
546.778,550.869,257119
546.491,541.268,255484
546.204,531.656,253816
545.917,522.034,249243
545.63,512.402,248667
545.343,502.76,255693
545.056,493.108,251147
544.769,483.446,246523
544.482,473.774,246685
544.195,464.091,243209
543.909,454.398,240911
543.622,444.695,238530
543.335,434.981,235264
543.048,425.258,235799
542.761,415.524,237380
542.474,405.78,237750
542.187,396.025,235742
541.9,386.26,232871
541.613,376.485,229122
541.326,366.7,228468
541.04,356.904,228111
540.753,347.097,226457
540.466,337.281,220735
540.179,327.453,215104
539.892,317.616,214055
539.605,307.768,216161
539.318,297.909,211050
539.031,288.04,197974
538.744,278.161,193532
538.457,268.271,165519
538.17,258.37,93129
537.884,248.459,68607
537.597,238.537,64978
537.31,228.605,64160
537.023,218.662,63842
536.736,208.708,63769
536.661,206.11,63653

File: Si_onTiO2_100mA_30mW_30sec_5acc_545nm.txt
Wavelength(nm), Raman shift(cm^-1), Intensity(counts)
553.364,768.549,243885
553.077,759.175,245045
552.79,749.791,243738
552.503,740.397,242032
552.216,730.994,241035
551.929,721.58,241535
551.642,712.157,240569
551.356,702.724,240054
551.069,693.282,239419
550.782,683.829,238370
550.495,674.367,238452
550.208,664.894,234450
549.921,655.412,233295
549.634,645.92,233428
549.347,636.418,233118
549.06,626.906,233047
548.773,617.385,232433
548.486,607.853,230230
548.2,598.311,227408
547.913,588.759,224038
547.626,579.197,221295
547.339,569.626,219656
547.052,560.044,219249
546.765,550.452,218315
546.478,540.85,216711
546.191,531.238,215990
545.904,521.616,212641
545.617,511.983,212392
545.331,502.341,218630
545.044,492.688,214100
544.757,483.026,209731
544.47,473.353,208910
544.183,463.67,207376
543.896,453.976,205040
543.609,444.273,202668
543.322,434.559,200580
543.035,424.835,200809
542.748,415.1,201383
542.462,405.356,200720
542.175,395.601,199418
541.888,385.836,197014
541.601,376.06,195142
541.314,366.274,194459
541.027,356.478,193570
540.74,346.671,193087
540.453,336.854,187579
540.166,327.026,183058
539.879,317.188,183442
539.593,307.339,184214
539.306,297.48,180080
539.019,287.611,169208
538.732,277.731,167158
538.445,267.84,141514
538.158,257.939,85354
537.871,248.028,67309
537.584,238.105,64548
537.297,228.172,63867
537.01,218.229,63647
536.723,208.275,63501
553.152,761.621,255984
552.865,752.24,253931
552.578,742.849,252191
552.291,733.448,253026
552.004,724.037,249866
551.717,714.616,251558
551.43,705.186,250433
551.143,695.746,249878
550.857,686.296,249035
550.57,676.836,246870
550.283,667.366,245603
549.996,657.887,243544
549.709,648.397,242903
549.422,638.898,243285
549.135,629.389,243136
548.848,619.869,242085
548.561,610.34,241504
548.274,600.801,237734
547.988,591.252,234022
547.701,581.693,231563
547.414,572.124,229617
547.127,562.544,228091
546.84,552.955,228081
546.553,543.356,225692
546.266,533.746,224214
545.979,524.127,222303
545.692,514.497,220638
545.405,504.857,224778
545.119,495.207,224385
544.832,485.547,218774
544.545,475.877,218230
544.258,466.197,216776
543.971,456.506,214867
543.684,446.805,211292
543.397,437.094,209036
543.11,427.373,209027
542.823,417.641,208996
542.536,407.899,209562
542.249,398.147,208427
541.963,388.384,205921
541.676,378.611,203954
541.389,368.828,202405
541.102,359.034,201992
540.815,349.23,200545
540.528,339.416,196239
540.241,329.591,191242
539.954,319.755,188965
539.667,309.91,190560
539.38,300.053,189398
539.094,290.186,177945
538.807,280.309,172211
538.52,270.421,161277
538.233,260.523,99759
537.946,250.614,69857
537.659,240.695,64933
537.372,230.765,64209
537.085,220.824,63819
536.798,210.873,63736
553.227,764.067,266154
552.94,754.688,265910
552.653,745.299,263817
552.366,735.901,261195
552.079,726.493,260962
551.792,717.075,261291
551.505,707.647,261215
551.218,698.21,261221
550.931,688.762,259620
550.644,679.305,258401
550.358,669.838,256495
550.071,660.361,254189
549.784,650.874,253911
549.497,641.377,251961
549.21,631.87,253193
548.923,622.354,253285
548.636,612.827,251193
548.349,603.291,248190
548.062,593.744,245078
547.775,584.187,241459
547.489,574.621,239536
547.202,565.044,237964
546.915,555.458,237685
546.628,545.861,237093
546.341,536.254,234093
546.054,526.637,232031
545.767,517.01,229016
545.48,507.373,232537
545.193,497.726,235904
544.906,488.068,228403
544.62,478.401,226883
544.333,468.723,225961
544.046,459.035,224044
543.759,449.337,221001
543.472,439.628,219064
543.185,429.91,216456
542.898,420.181,216716
542.611,410.441,217453
542.324,400.692,217106
542.037,390.932,215058
541.751,381.162,212766
541.464,371.381,210125
541.177,361.59,209593
540.89,351.789,208336
540.603,341.977,206092
540.316,332.155,200924
540.029,322.322,196200
539.742,312.479,198185
539.455,302.625,197553
539.168,292.761,188878
538.881,282.887,178482
538.595,273.002,175467
538.308,263.106,118285
538.021,253.2,74177
537.734,243.283,65905
537.447,233.356,64455
537.16,223.418,64087
536.873,213.47,63842
553.301,766.512,268167
553.015,757.136,266706
552.728,747.75,265121
552.441,738.354,262961
552.154,728.948,262217
551.867,719.533,262091
551.58,710.107,262135
551.293,700.672,260749
551.006,691.228,261604
550.719,681.773,259934
550.432,672.308,257677
550.146,662.834,255050
549.859,653.35,253680
549.572,643.855,253158
549.285,634.351,252984
548.998,624.837,253145
548.711,615.313,251717
548.424,605.779,249281
548.137,596.235,246730
547.85,586.681,242550
547.563,577.117,240737
547.277,567.543,238696
546.99,557.959,238066
546.703,548.365,237908
546.416,538.761,236187
546.129,529.147,232638
545.842,519.523,230079
545.555,509.888,230306
545.268,500.243,236712
544.981,490.589,230781
544.694,480.924,227728
544.407,471.249,226584
544.121,461.563,224138
543.834,451.868,222200
543.547,442.162,218727
543.26,432.446,217936
542.973,422.72,218192
542.686,412.983,217684
542.399,403.236,218053
542.112,393.479,215928
541.825,383.711,212604
541.538,373.933,211278
541.252,364.145,210365
540.965,354.347,210345
540.678,344.537,207264
540.391,334.718,201536
540.104,324.888,197484
539.817,315.048,197905
539.53,305.197,198178
539.243,295.336,191824
538.956,285.464,180127
538.669,275.582,178840
538.383,265.689,137566
538.096,255.785,80442
537.809,245.871,66975
537.522,235.947,64717
537.235,226.012,64154
536.948,216.066,63901
536.661,206.11,63872
553.089,759.583,265486
552.802,750.199,262881
552.516,740.806,262678
552.229,731.403,261785
551.942,721.99,261182
551.655,712.567,261548
551.368,703.135,260705
551.081,693.692,259508
550.794,684.24,259151
550.507,674.778,257019
550.22,665.306,254617
549.933,655.825,253651
549.647,646.333,253101
549.36,636.832,251654
549.073,627.32,253381
548.786,617.799,251237
548.499,608.267,248521
548.212,598.726,245567
547.925,589.175,243420
547.638,579.613,239568
547.351,570.042,237370
547.064,560.461,236395
546.778,550.869,236572
546.491,541.268,234861
546.204,531.656,233559
545.917,522.034,230186
545.63,512.402,228386
545.343,502.76,234822
545.056,493.108,230202
544.769,483.446,226626
544.482,473.774,226029
544.195,464.091,223423
543.909,454.398,221517
543.622,444.695,218953
543.335,434.981,216816
543.048,425.258,216102
542.761,415.524,217099
542.474,405.78,217436
542.187,396.025,215232
541.9,386.26,212177
541.613,376.485,210820
541.326,366.7,210278
541.04,356.904,208194
540.753,347.097,207801
540.466,337.281,202603
540.179,327.453,197303
539.892,317.616,196422
539.605,307.768,197954
539.318,297.909,194241
539.031,288.04,181372
538.744,278.161,178523
538.457,268.271,154550
538.17,258.37,90265
537.884,248.459,68324
537.597,238.537,64778
537.31,228.605,64262
537.023,218.662,63988
536.736,208.708,63704
536.661,206.11,63861

File: Si_onTiO2_100mA_30mW_30sec_5acc_545nm_bg.txt
Wavelength(nm), Raman shift(cm^-1), Intensity(counts)
553.364,768.549,298727
553.077,759.175,298646
552.79,749.791,296346
552.503,740.397,294801
552.216,730.994,293282
551.929,721.58,293381
551.642,712.157,293668
551.356,702.724,292367
551.069,693.282,291987
550.782,683.829,290669
550.495,674.367,287614
550.208,664.894,285987
549.921,655.412,283918
549.634,645.92,283481
549.347,636.418,283071
549.06,626.906,283500
548.773,617.385,282919
548.486,607.853,277350
548.2,598.311,275162
547.913,588.759,271010
547.626,579.197,268851
547.339,569.626,266595
547.052,560.044,265451
546.765,550.452,264928
546.478,540.85,262387
546.191,531.238,259992
545.904,521.616,256486
545.617,511.983,253727
545.331,502.341,251385
545.044,492.688,250673
544.757,483.026,251018
544.47,473.353,250906
544.183,463.67,250838
543.896,453.976,247199
543.609,444.273,244148
543.322,434.559,241742
543.035,424.835,241878
542.748,415.1,242113
542.462,405.356,242630
542.175,395.601,240311
541.888,385.836,237338
541.601,376.06,234447
541.314,366.274,232693
541.027,356.478,233188
540.74,346.671,230447
540.453,336.854,225095
540.166,327.026,218294
539.879,317.188,217235
539.593,307.339,219159
539.306,297.48,214565
539.019,287.611,198604
538.732,277.731,196022
538.445,267.84,165574
538.158,257.939,92653
537.871,248.028,69494
537.584,238.105,65597
537.297,228.172,64597
537.01,218.229,64379
536.723,208.275,64155
553.152,761.621,314605
552.865,752.24,311174
552.578,742.849,309898
552.291,733.448,310083
552.004,724.037,307891
551.717,714.616,306984
551.43,705.186,305826
551.143,695.746,308455
550.857,686.296,306587
550.57,676.836,303243
550.283,667.366,300578
549.996,657.887,298891
549.709,648.397,296862
549.422,638.898,296887
549.135,629.389,296997
548.848,619.869,297131
548.561,610.34,292943
548.274,600.801,291045
547.988,591.252,286114
547.701,581.693,283185
547.414,572.124,279947
547.127,562.544,278901
546.84,552.955,277706
546.553,543.356,277466
546.266,533.746,273069
545.979,524.127,269621
545.692,514.497,265867
545.405,504.857,263747
545.119,495.207,263047
544.832,485.547,263276
544.545,475.877,263461
544.258,466.197,262610
543.971,456.506,260005
543.684,446.805,256637
543.397,437.094,254282
543.11,427.373,253253
542.823,417.641,254113
542.536,407.899,253174
542.249,398.147,253430
541.963,388.384,250452
541.676,378.611,246488
541.389,368.828,243974
541.102,359.034,245143
540.815,349.23,241800
540.528,339.416,236890
540.241,329.591,231026
539.954,319.755,227830
539.667,309.91,228998
539.38,300.053,227228
539.094,290.186,212425
538.807,280.309,204380
538.52,270.421,190710
538.233,260.523,110920
537.946,250.614,72739
537.659,240.695,66200
537.372,230.765,64955
537.085,220.824,64504
536.798,210.873,64479
553.227,764.067,317622
552.94,754.688,315422
552.653,745.299,314876
552.366,735.901,312130
552.079,726.493,311298
551.792,717.075,311909
551.505,707.647,310831
551.218,698.21,311164
550.931,688.762,308257
550.644,679.305,307017
550.358,669.838,304191
550.071,660.361,300616
549.784,650.874,299943
549.497,641.377,299991
549.21,631.87,300685
548.923,622.354,299912
548.636,612.827,297537
548.349,603.291,293874
548.062,593.744,290452
547.775,584.187,286609
547.489,574.621,282970
547.202,565.044,281676
546.915,555.458,280928
546.628,545.861,280691
546.341,536.254,277736
546.054,526.637,273549
545.767,517.01,270792
545.48,507.373,267933
545.193,497.726,266869
544.906,488.068,265521
544.62,478.401,267287
544.333,468.723,265946
544.046,459.035,263781
543.759,449.337,260467
543.472,439.628,256807
543.185,429.91,256438
542.898,420.181,255873
542.611,410.441,256201
542.324,400.692,255092
542.037,390.932,253682
541.751,381.162,249728
541.464,371.381,247615
541.177,361.59,247125
540.89,351.789,245751
540.603,341.977,241682
540.316,332.155,234055
540.029,322.322,229808
539.742,312.479,231284
539.455,302.625,230941
539.168,292.761,219159
538.881,282.887,207067
538.595,273.002,202848
538.308,263.106,131959
538.021,253.2,77516
537.734,243.283,66935
537.447,233.356,65301
537.16,223.418,64850
536.873,213.47,64592
553.301,766.512,309036
553.015,757.136,308405
552.728,747.75,307893
552.441,738.354,305329
552.154,728.948,304043
551.867,719.533,302822
551.58,710.107,303205
551.293,700.672,301475
551.006,691.228,301744
550.719,681.773,300233
550.432,672.308,297874
550.146,662.834,294521
549.859,653.35,292512
549.572,643.855,293091
549.285,634.351,292808
548.998,624.837,292573
548.711,615.313,291292
548.424,605.779,288174
548.137,596.235,284733
547.85,586.681,280239
547.563,577.117,275961
547.277,567.543,274740
546.99,557.959,274815
546.703,548.365,273578
546.416,538.761,271255
546.129,529.147,268566
545.842,519.523,263432
545.555,509.888,262364
545.268,500.243,259458
544.981,490.589,259095
544.694,480.924,261206
544.407,471.249,259253
544.121,461.563,257494
543.834,451.868,254500
543.547,442.162,251864
543.26,432.446,250176
542.973,422.72,249997
542.686,412.983,251074
542.399,403.236,250539
542.112,393.479,247349
541.825,383.711,243756
541.538,373.933,241705
541.252,364.145,240761
540.965,354.347,240688
540.678,344.537,237255
540.391,334.718,230544
540.104,324.888,225482
539.817,315.048,224954
539.53,305.197,225494
539.243,295.336,218029
538.956,285.464,204294
538.669,275.582,202306
538.383,265.689,152169
538.096,255.785,84607
537.809,245.871,68056
537.522,235.947,65396
537.235,226.012,64807
536.948,216.066,64438
536.661,206.11,64324
553.089,759.583,307030
552.802,750.199,305465
552.516,740.806,303759
552.229,731.403,301830
551.942,721.99,301119
551.655,712.567,301917
551.368,703.135,302481
551.081,693.692,299374
550.794,684.24,299224
550.507,674.778,295427
550.22,665.306,292692
549.933,655.825,291448
549.647,646.333,291164
549.36,636.832,290759
549.073,627.32,290634
548.786,617.799,291027
548.499,608.267,287380
548.212,598.726,282773
547.925,589.175,278210
547.638,579.613,275983
547.351,570.042,273593
547.064,560.461,273014
546.778,550.869,272358
546.491,541.268,269582
546.204,531.656,266486
545.917,522.034,263328
545.63,512.402,260332
545.343,502.76,258377
545.056,493.108,257463
544.769,483.446,257186
544.482,473.774,259162
544.195,464.091,256257
543.909,454.398,253948
543.622,444.695,251619
543.335,434.981,249093
543.048,425.258,248322
542.761,415.524,248440
542.474,405.78,248496
542.187,396.025,247110
541.9,386.26,243990
541.613,376.485,240811
541.326,366.7,239895
541.04,356.904,239397
540.753,347.097,236400
540.466,337.281,231433
540.179,327.453,224350
539.892,317.616,222937
539.605,307.768,224855
539.318,297.909,219874
539.031,288.04,205096
538.744,278.161,199835
538.457,268.271,172589
538.17,258.37,96428
537.884,248.459,69713
537.597,238.537,65841
537.31,228.605,64891
537.023,218.662,64365
536.736,208.708,64446
536.661,206.11,64316