Folder: flash_scratch/tomke/20240809/raw_data

File: Si_onTiO2_0mA_30mW_30sec_3acc_545nm_bg.txt
Wavelength(nm), Raman shift(cm^-1), Intensity(counts)
553.364,768.549,59786
553.189,762.844,60049
553.015,757.136,59993
552.84,751.424,59931
552.665,745.708,60018
552.491,739.989,59970
552.316,734.266,59989
552.141,728.539,60070
551.967,722.809,60035
551.792,717.075,59974
551.617,711.337,60047
551.443,705.596,60085
551.268,699.852,59969
551.094,694.103,59975
550.919,688.351,59950
550.744,682.595,60002
550.57,676.836,59912
550.395,671.073,60022
550.22,665.306,59988
550.046,659.536,60013
549.871,653.762,60046
549.696,647.985,60033
549.522,642.203,60058
549.347,636.418,60015
549.173,630.63,60050
548.998,624.837,59964
548.823,619.041,59969
548.649,613.242,59988
548.474,607.438,60009
548.299,601.631,59941
548.125,595.82,59966
547.95,590.006,60049
547.775,584.187,60043
547.601,578.365,60041
547.426,572.54,60008
547.252,566.71,60036
547.077,560.877,60033
546.902,555.041,60006
546.728,549.2,59941
546.553,543.356,60089
546.378,537.508,59933
546.204,531.656,60123
546.029,525.8,60000
545.854,519.941,60033
545.68,514.078,60066
545.505,508.211,60080
545.331,502.341,60035
545.156,496.467,60009
544.981,490.589,60008
544.807,484.707,60117
544.632,478.821,60051
544.457,472.932,59905
544.283,467.039,60023
544.108,461.142,59997
543.933,455.241,60094
543.759,449.337,59976
543.584,443.428,59915
543.41,437.516,60042
543.235,431.601,59949
543.06,425.681,60009
542.886,419.757,59984
542.711,413.83,60044
542.536,407.899,59952
542.362,401.964,59977
542.187,396.025,59928
542.012,390.083,60003
541.838,384.136,59916
541.663,378.186,59970
541.489,372.232,60017
541.314,366.274,59966
541.139,360.312,60038
540.965,354.347,59994
540.79,348.377,59931
540.615,342.404,60046
540.441,336.426,60027
540.266,330.445,59967
540.091,324.46,60016
539.917,318.472,59894
539.742,312.479,59968
539.568,306.482,60019
539.393,300.482,60024
539.218,294.478,60011
539.044,288.469,59953
538.869,282.457,59988
538.694,276.441,59978
538.52,270.421,60061
538.345,264.398,60016
538.17,258.37,59960
537.996,252.338,59987
537.821,246.303,59966
537.647,240.263,60021
537.472,234.22,59993
537.297,228.172,59985
537.123,222.121,60048
536.948,216.066,60054
536.773,210.007,60000
553.314,766.92,60020
553.139,761.214,59994
552.965,755.504,60016
552.79,749.791,59975
552.615,744.074,60080
552.441,738.354,60024
552.266,732.63,60021
552.091,726.902,60007
551.917,721.171,59935
551.742,715.436,60079
551.568,709.697,60042
551.393,703.955,59968
551.218,698.21,59976
551.044,692.46,60059
550.869,686.707,60037
550.694,680.95,60090
550.52,675.19,60037
550.345,669.426,60011
550.17,663.658,60003
549.996,657.887,60033
549.821,652.112,59996
549.647,646.333,59976
549.472,640.551,59989
549.297,634.765,59941
549.123,628.975,60004
548.948,623.182,60029
548.773,617.385,59953
548.599,611.584,59987
548.424,605.779,59975
548.249,599.971,59979
548.075,594.159,60016
547.9,588.344,60022
547.726,582.524,60036
547.551,576.701,60026
547.376,570.875,59914
547.202,565.044,60011
547.027,559.21,60026
546.852,553.372,60038
546.678,547.531,60004
546.503,541.685,59921
546.328,535.836,59987
546.154,529.983,59927
545.979,524.127,60052
545.805,518.266,59981
545.63,512.402,60028
545.455,506.535,59989
545.281,500.663,60015
545.106,494.788,60035
544.931,488.909,59981
544.757,483.026,59955
544.582,477.139,60012
544.407,471.249,60101
544.233,465.354,59924
544.058,459.456,59995
543.884,453.555,60041
543.709,447.649,59999
543.534,441.74,60017
543.36,435.827,59976
543.185,429.91,60004
543.01,423.989,59930
542.836,418.064,59975
542.661,412.136,60037
542.486,406.204,59954
542.312,400.268,60082
542.137,394.328,60079
541.963,388.384,60053
541.788,382.437,59969
541.613,376.485,60023
541.439,370.53,59963
541.264,364.571,59908
541.089,358.608,60058
540.915,352.641,60025
540.74,346.671,59959
540.565,340.696,60034
540.391,334.718,59907
540.216,328.736,60061
540.042,322.75,60012
539.867,316.76,60032
539.692,310.766,60039
539.518,304.768,59993
539.343,298.767,60046
539.168,292.761,59971
538.994,286.752,60077
538.819,280.739,60049
538.644,274.722,60044
538.47,268.701,60092
538.295,262.676,59951
538.121,256.647,59972
537.946,250.614,60014
537.771,244.578,60000
537.597,238.537,60031
537.422,232.492,59935
537.247,226.444,59944
537.073,220.392,60024
536.898,214.335,60001
536.723,208.275,60014
553.264,765.29,60030
553.089,759.583,59976
552.915,753.872,59979
552.74,748.158,59924
552.565,742.44,59988
552.391,736.719,60018
552.216,730.994,59938
552.042,725.265,60004
551.867,719.533,59945
551.692,713.797,60016
551.518,708.057,60073
551.343,702.314,59972
551.168,696.567,59905
550.994,690.817,59998
550.819,685.063,59982
550.644,679.305,59980
550.47,673.543,59985
550.295,667.778,60041
550.121,662.01,60037
549.946,656.237,60027
549.771,650.461,59964
549.597,644.681,59970
549.422,638.898,60012
549.247,633.111,59992
549.073,627.32,60045
548.898,621.526,59977
548.723,615.728,60009
548.549,609.926,60102
548.374,604.12,60029
548.2,598.311,59996
548.025,592.498,60059
547.85,586.681,60007
547.676,580.861,59927
547.501,575.037,60023
547.326,569.209,59983
547.152,563.378,60031
546.977,557.543,59997
546.802,551.704,59972
546.628,545.861,60013
546.453,540.014,59946
546.279,534.164,60031
546.104,528.31,60085
545.929,522.453,60054
545.755,516.591,59996
545.58,510.726,60027
545.405,504.857,60001
545.231,498.985,59990
545.056,493.108,60039
544.881,487.228,60019
544.707,481.344,60006
544.532,475.456,60048
544.358,469.565,59966
544.183,463.67,60037
544.008,457.771,60032
543.834,451.868,59875
543.659,445.961,59962
543.484,440.051,60003
543.31,434.136,59987
543.135,428.218,60006
542.96,422.296,59943
542.786,416.371,59951
542.611,410.441,59983
542.437,404.508,60032
542.262,398.571,59985
542.087,392.63,59914
541.913,386.685,60028
541.738,380.737,59968
541.563,374.784,60058
541.389,368.828,60022
541.214,362.868,59988
541.04,356.904,59939
540.865,350.936,59923
540.69,344.964,60022
540.516,338.989,59995
540.341,333.009,59939
540.166,327.026,60066
539.992,321.039,60073
539.817,315.048,60050
539.642,309.053,59997
539.468,303.054,59953
539.293,297.051,60024
539.119,291.045,59988
538.944,285.034,59989
538.769,279.02,60078
538.595,273.002,60044
538.42,266.98,59959
538.245,260.954,59929
538.071,254.924,59970
537.896,248.89,59977
537.721,242.852,59979
537.547,236.81,59975
537.372,230.765,60064
537.198,224.715,60004
537.023,218.662,59939
536.848,212.604,59970
536.674,206.543,59966
536.661,206.11,59985

File: Si_onTiO2_0mA_30mW_30sec_4acc_517nm_02.txt
Wavelength(nm), Raman shift(cm^-1), Intensity(counts)
525.364,-194.586,59752
525.139,-202.724,60000
524.915,-210.87,59965
524.69,-219.022,60009
524.466,-227.181,60001
524.241,-235.348,59967
524.017,-243.521,60120
523.792,-251.702,59972
523.568,-259.889,59985
523.343,-268.084,60011
523.119,-276.285,60159
522.894,-284.494,60194
522.669,-292.709,60149
522.445,-300.932,60283
522.22,-309.161,60187
521.996,-317.398,60276
521.771,-325.642,60213
521.547,-333.893,60189
521.322,-342.151,60155
521.098,-350.416,60102
520.873,-358.689,60057
520.649,-366.968,60138
520.424,-375.255,60086
520.2,-383.548,60113
519.975,-391.849,60029
519.751,-400.158,60062
519.526,-408.473,60106
519.301,-416.795,60115
519.077,-425.125,60063
518.852,-433.462,60007
518.628,-441.806,60107
518.403,-450.157,60058
518.179,-458.516,59995
517.954,-466.882,60014
517.73,-475.255,60033
517.505,-483.635,60062
517.281,-492.023,60099
517.056,-500.417,60152
516.832,-508.82,60252
516.607,-517.229,65273
516.383,-525.646,61186
516.158,-534.07,60216
515.933,-542.501,60049
515.709,-550.94,60099
515.484,-559.386,60012
515.26,-567.84,60040
515.035,-576.301,59991
514.811,-584.769,60041
514.586,-593.245,60048
514.362,-601.728,60050
514.137,-610.218,60095
513.913,-618.716,60019
513.688,-627.221,60038
513.464,-635.734,60048
513.239,-644.254,60109
513.015,-652.782,60008
512.79,-661.317,59994
512.565,-669.86,60062
512.341,-678.41,60020
512.116,-686.967,59992
511.892,-695.532,60001
511.667,-704.105,59972
511.443,-712.685,60075
511.218,-721.273,60030
510.994,-729.868,59978
510.769,-738.471,60034
510.545,-747.081,60000
510.32,-755.699,60001
510.096,-764.325,60057
509.871,-772.958,60059
509.647,-781.598,60003
509.422,-790.247,59985
509.198,-798.903,59984
508.973,-807.566,59960
508.748,-816.237,59962
525.239,-199.106,59965
525.015,-207.249,59967
524.79,-215.398,60055
524.565,-223.554,60035
524.341,-231.717,60009
524.116,-239.888,59993
523.892,-248.065,59968
523.667,-256.249,60046
523.443,-264.441,60029
523.218,-272.639,60093
522.994,-280.844,60133
522.769,-289.057,60242
522.545,-297.276,60283
522.32,-305.503,60320
522.096,-313.737,60191
521.871,-321.977,60244
521.647,-330.225,60136
521.422,-338.48,60163
521.198,-346.742,60101
520.973,-355.011,60176
520.748,-363.287,60171
520.524,-371.571,60007
520.299,-379.861,60140
520.075,-388.159,60099
519.85,-396.464,60129
519.626,-404.776,60080
519.401,-413.095,60024
519.177,-421.422,60021
518.952,-429.756,60095
518.728,-438.096,60070
518.503,-446.445,60046
518.279,-454.8,59983
518.054,-463.163,60013
517.83,-471.532,59970
517.605,-479.909,60104
517.38,-488.294,60100
517.156,-496.685,60115
516.931,-505.084,60065
516.707,-513.491,60963
516.482,-521.904,64662
516.258,-530.325,60320
516.033,-538.753,60040
515.809,-547.189,60056
515.584,-555.632,60022
515.36,-564.082,59964
515.135,-572.539,59934
514.911,-581.004,60034
514.686,-589.477,60063
514.462,-597.957,60000
514.237,-606.444,60085
514.012,-614.938,60091
513.788,-623.44,60024
513.563,-631.95,60093
513.339,-640.467,59999
513.114,-648.991,60024
512.89,-657.523,59972
512.665,-666.062,59956
512.441,-674.609,59996
512.216,-683.163,60048
511.992,-691.725,60003
511.767,-700.294,60005
511.543,-708.871,60008
511.318,-717.455,60023
511.094,-726.047,59936
510.869,-734.646,59915
510.644,-743.253,60014
510.42,-751.868,60004
510.195,-760.49,59995
509.971,-769.12,59985
509.746,-777.757,60006
509.522,-786.402,60062
509.297,-795.055,59959
509.073,-803.715,59994
508.848,-812.383,60014
525.339,-195.49,59857
525.114,-203.629,60083
524.89,-211.775,59986
524.665,-219.928,59950
524.441,-228.088,60026
524.216,-236.256,60058
523.992,-244.43,60011
523.767,-252.611,60102
523.543,-260.799,60051
523.318,-268.994,60112
523.094,-277.197,60086
522.869,-285.406,60161
522.644,-293.622,60180
522.42,-301.846,60336
522.195,-310.076,60212
521.971,-318.314,60221
521.746,-326.559,60226
521.522,-334.81,60118
521.297,-343.069,60093
521.073,-351.335,60093
520.848,-359.608,60081
520.624,-367.889,60134
520.399,-376.176,60087
520.175,-384.47,60055
519.95,-392.772,60138
519.726,-401.081,60025
519.501,-409.397,60017
519.277,-417.72,59980
519.052,-426.051,60134
518.827,-434.389,60063
518.603,-442.733,60048
518.378,-451.086,60104
518.154,-459.445,60039
517.929,-467.812,60111
517.705,-476.185,60044
517.48,-484.567,60059
517.256,-492.955,59981
517.031,-501.351,60244
516.807,-509.754,60315
516.582,-518.164,66687
516.358,-526.582,60837
516.133,-535.006,60153
515.909,-543.439,60054
515.684,-551.878,60090
515.459,-560.325,60063
515.235,-568.78,60053
515.01,-577.241,60009
514.786,-585.71,59957
514.561,-594.187,60044
514.337,-602.671,60099
514.112,-611.162,60051
513.888,-619.661,60064
513.663,-628.167,60057
513.439,-636.68,60087
513.214,-645.201,60064
512.99,-653.73,60017
512.765,-662.266,60037
512.541,-670.809,60056
512.316,-679.36,60046
512.091,-687.919,60026
511.867,-696.485,59968
511.642,-705.058,60029
511.418,-713.639,59962
511.193,-722.227,60065
510.969,-730.823,60089
510.744,-739.427,60005
510.52,-748.038,60019
510.295,-756.657,59991
510.071,-765.283,60041
509.846,-773.917,60006
509.622,-782.559,59950
509.397,-791.208,60066
509.173,-799.865,59972
508.948,-808.529,60005
508.723,-817.201,60031
525.214,-200.011,59995
524.99,-208.154,60004
524.765,-216.304,59952
524.541,-224.461,59947
524.316,-232.625,59927
524.091,-240.796,60046
523.867,-248.974,60019
523.642,-257.159,59990
523.418,-265.351,60069
523.193,-273.55,60080
522.969,-281.757,60144
522.744,-289.97,60211
522.52,-298.19,60281
522.295,-306.417,60314
522.071,-314.652,60150
521.846,-322.893,60204
521.622,-331.142,60247
521.397,-339.398,60145
521.173,-347.66,60083
520.948,-355.93,60133
520.723,-364.208,60177
520.499,-372.492,60051
520.274,-380.783,60096
520.05,-389.082,60014
519.825,-397.387,60069
519.601,-405.7,60040
519.376,-414.02,59968
519.152,-422.348,60057
518.927,-430.682,60000
518.703,-439.024,59989
518.478,-447.373,60093
518.254,-455.729,59955
518.029,-464.092,60052
517.805,-472.463,60102
517.58,-480.841,59979
517.356,-489.226,60031
517.131,-497.618,60098
516.906,-506.018,60101
516.682,-514.425,61256
516.457,-522.839,63509
516.233,-531.261,60258
516.008,-539.69,60044
515.784,-548.126,59974
515.559,-556.57,60002
515.335,-565.021,60087
515.11,-573.48,59957
514.886,-581.945,59940
514.661,-590.419,59966
514.437,-598.899,60037
514.212,-607.387,60013
513.988,-615.883,60041
513.763,-624.385,59991
513.538,-632.896,60121
513.314,-641.413,60009
513.089,-649.939,60010
512.865,-658.471,60022
512.64,-667.011,60018
512.416,-675.559,59956
512.191,-684.114,60052
511.967,-692.677,60042
511.742,-701.247,60042
511.518,-709.824,59982
511.293,-718.409,60009
511.069,-727.002,59979
510.844,-735.602,60003
510.62,-744.21,60018
510.395,-752.826,59991
510.17,-761.448,60020
509.946,-770.079,60025
509.721,-778.717,59990
509.497,-787.363,60078
509.272,-796.016,59965
509.048,-804.677,59941
508.823,-813.346,60001
508.661,-819.612,60001

File: Si_onTiO2_0mA_30mW_30sec_4acc_545nm.txt
Wavelength(nm), Raman shift(cm^-1), Intensity(counts)
552.12,727.839,59880
551.929,721.567,60015
551.738,715.29,60148
551.547,709.009,60157
551.355,702.723,60117
551.164,696.433,60098
550.973,690.139,60178
550.782,683.84,60114
550.591,677.537,60216
550.4,671.23,60208
550.209,664.918,60245
550.017,658.602,60249
549.826,652.282,60224
549.635,645.957,60296
549.444,639.627,60247
549.253,633.294,60332
549.062,626.955,60290
548.871,620.613,60314
548.679,614.266,60348
548.488,607.914,60519
548.297,601.559,60376
548.106,595.198,60371
547.915,588.834,60268
547.724,582.464,60270
547.533,576.091,60262
547.341,569.713,60162
547.15,563.33,60233
546.959,556.943,60264
546.768,550.552,60263
546.577,544.156,60370
546.386,537.756,60560
546.195,531.351,60950
546.003,524.941,62069
545.812,518.528,89681
545.621,512.109,76505
545.43,505.686,61914
545.239,499.259,60791
545.048,492.827,60469
544.857,486.391,60454
544.666,479.95,60259
544.474,473.505,60248
544.283,467.055,60225
544.092,460.6,60180
543.901,454.141,60316
543.71,447.678,60395
543.519,441.21,60412
543.328,434.737,60392
543.136,428.26,60398
542.945,421.778,60459
542.754,415.292,60336
542.563,408.801,60462
542.372,402.306,60473
542.181,395.806,60361
541.99,389.301,60520
541.798,382.792,60524
541.607,376.278,60502
541.416,369.76,60558
541.225,363.237,60479
541.034,356.709,60636
540.843,350.177,60875
540.652,343.64,60812
540.46,337.099,60769
540.269,330.552,61165
540.078,324.002,60913
539.887,317.446,60789
539.696,310.886,60647
539.505,304.322,60790
539.314,297.752,60651
539.122,291.178,60149
538.931,284.6,59977
538.74,278.016,60005
538.549,271.429,59983
538.358,264.836,60023
538.167,258.239,60065
537.976,251.637,59996
552.014,724.355,60141
551.823,718.08,60037
551.632,711.801,60150
551.44,705.517,60101
551.249,699.229,60111
551.058,692.937,60118
550.867,686.64,60184
550.676,680.339,60046
550.485,674.034,60199
550.294,667.724,60226
550.102,661.41,60244
549.911,655.091,60274
549.72,648.768,60392
549.529,642.441,60262
549.338,636.109,60197
549.147,629.773,60323
548.956,623.432,60279
548.764,617.087,60399
548.573,610.738,60368
548.382,604.384,60395
548.191,598.026,60372
548,591.663,60328
547.809,585.296,60168
547.618,578.924,60203
547.426,572.548,60121
547.235,566.168,60219
547.044,559.783,60219
546.853,553.393,60313
546.662,546.999,60308
546.471,540.601,60482
546.28,534.198,60593
546.088,527.791,61214
545.897,521.379,65868
545.706,514.962,111483
545.515,508.542,63803
545.324,502.116,61112
545.133,495.686,60605
544.942,489.252,60544
544.75,482.813,60366
544.559,476.37,60226
544.368,469.922,60197
544.177,463.47,60156
543.986,457.013,60302
543.795,450.551,60364
543.604,444.085,60359
543.412,437.614,60467
543.221,431.139,60457
543.03,424.66,60352
542.839,418.175,60398
542.648,411.686,60484
542.457,405.193,60562
542.266,398.695,60341
542.074,392.193,60359
541.883,385.685,60501
541.692,379.174,60397
541.501,372.657,60546
541.31,366.136,60587
541.119,359.611,60624
540.928,353.081,60750
540.736,346.546,61014
540.545,340.006,60813
540.354,333.462,60803
540.163,326.914,61063
539.972,320.36,60879
539.781,313.802,60725
539.59,307.24,60662
539.398,300.673,60775
539.207,294.101,60360
539.016,287.524,60067
538.825,280.943,59988
538.634,274.357,59901
538.443,267.766,59934
538.252,261.171,60013
538.06,254.571,60052
552.099,727.142,60058
551.908,720.869,60179
551.717,714.592,60118
551.525,708.31,60121
551.334,702.024,60086
551.143,695.734,60103
550.952,689.439,60153
550.761,683.14,60021
550.57,676.837,60158
550.379,670.529,60158
550.187,664.217,60130
549.996,657.9,60253
549.805,651.579,60294
549.614,645.254,60325
549.423,638.924,60257
549.232,632.589,60298
549.041,626.251,60331
548.849,619.908,60262
548.658,613.56,60410
548.467,607.208,60283
548.276,600.852,60399
548.085,594.491,60345
547.894,588.126,60298
547.703,581.756,60228
547.511,575.382,60284
547.32,569.004,60179
547.129,562.621,60037
546.938,556.233,60247
546.747,549.841,60278
546.556,543.445,60420
546.365,537.044,60607
546.173,530.639,60923
545.982,524.229,62530
545.791,517.815,101160
545.6,511.396,72381
545.409,504.973,61696
545.218,498.545,60788
545.027,492.112,60528
544.835,485.676,60377
544.644,479.234,60238
544.453,472.788,60276
544.262,466.338,60167
544.071,459.883,60190
543.88,453.423,60308
543.689,446.959,60402
543.497,440.491,60408
543.306,434.018,60440
543.115,427.54,60377
542.924,421.058,60351
542.733,414.571,60391
542.542,408.08,60476
542.351,401.584,60491
542.159,395.083,60419
541.968,388.578,60401
541.777,382.068,60494
541.586,375.554,60462
541.395,369.035,60511
541.204,362.512,60625
541.013,355.983,60668
540.821,349.451,60880
540.63,342.913,60786
540.439,336.371,60813
540.248,329.825,61176
540.057,323.274,60805
539.866,316.718,60645
539.675,310.157,60808
539.483,303.592,60773
539.292,297.022,60497
539.101,290.448,60113
538.91,283.869,60013
538.719,277.285,59963
538.528,270.696,60037
538.337,264.103,60027
538.145,257.505,59952
537.954,250.903,59963
551.993,723.658,60059
551.801,717.383,60216
551.61,711.103,60132
551.419,704.819,60103
551.228,698.53,60154
551.037,692.238,60165
550.846,685.94,60211
550.655,679.639,60101
550.463,673.333,60131
550.272,667.023,60270
550.081,660.708,60241
549.89,654.389,60321
549.699,648.065,60216
549.508,641.738,60270
549.317,635.405,60258
549.125,629.069,60290
548.934,622.727,60435
548.743,616.382,60352
548.552,610.032,60410
548.361,603.678,60460
548.17,597.319,60328
547.979,590.956,60378
547.787,584.588,60287
547.596,578.216,60229
547.405,571.839,60237
547.214,565.458,60224
547.023,559.073,60352
546.832,552.683,60232
546.641,546.288,60304
546.449,539.89,60480
546.258,533.486,60648
546.067,527.078,61399
545.876,520.666,68133
545.685,514.249,100507
545.494,507.828,62925
545.303,501.402,61098
545.111,494.972,60678
544.92,488.537,60475
544.729,482.098,60318
544.538,475.654,60214
544.347,469.205,60236
544.156,462.752,60223
543.965,456.295,60300
543.774,449.833,60303
543.582,443.366,60444
543.391,436.895,60483
543.2,430.42,60466
543.009,423.939,60440
542.818,417.455,60353
542.627,410.965,60401
542.436,404.471,60575
542.244,397.973,60411
542.053,391.47,60522
541.862,384.962,60471
541.671,378.45,60522
541.48,371.933,60552
541.289,365.411,60512
541.098,358.885,60617
540.906,352.355,60810
540.715,345.819,60921
540.524,339.28,60819
540.333,332.735,60915
540.142,326.186,61058
539.951,319.632,60778
539.76,313.074,60675
539.568,306.51,60786
539.377,299.943,60681
539.186,293.37,60247
538.995,286.793,60094
538.804,280.211,60040
538.613,273.625,60040
538.422,267.034,60065
538.23,260.438,59966
538.039,253.838,59961
537.901,249.068,59965