Folder: flash_scratch/tomke/20240809/raw_data (part 5)

File: Si_onTiO2_70mA_30mW_30sec_5acc_545nm.txt
Wavelength(nm), Raman shift(cm^-1), Intensity(counts)
553.364,768.549,201525
553.077,759.175,201724
552.79,749.791,200421
552.503,740.397,199071
552.216,730.994,198774
551.929,721.58,197829
551.642,712.157,197653
551.356,702.724,198261
551.069,693.282,196867
550.782,683.829,197008
550.495,674.367,195437
550.208,664.894,194154
549.921,655.412,193267
549.634,645.92,192240
549.347,636.418,193289
549.06,626.906,193202
548.773,617.385,192331
548.486,607.853,190383
548.2,598.311,188859
547.913,588.759,186579
547.626,579.197,184247
547.339,569.626,182867
547.052,560.044,183158
546.765,550.452,181983
546.478,540.85,180739
546.191,531.238,180187
545.904,521.616,178661
545.617,511.983,177391
545.331,502.341,186529
545.044,492.688,181113
544.757,483.026,177230
544.47,473.353,175295
544.183,463.67,174821
543.896,453.976,172846
543.609,444.273,170429
543.322,434.559,168428
543.035,424.835,169513
542.748,415.1,169051
542.462,405.356,168199
542.175,395.601,167733
541.888,385.836,166556
541.601,376.06,163925
541.314,366.274,164616
541.027,356.478,164547
540.74,346.671,162749
540.453,336.854,160004
540.166,327.026,155250
539.879,317.188,155634
539.593,307.339,156604
539.306,297.48,153737
539.019,287.611,144758
538.732,277.731,142720
538.445,267.84,124032
538.158,257.939,79395
537.871,248.028,65670
537.584,238.105,63491
537.297,228.172,63048
537.01,218.229,62914
536.723,208.275,62736
553.152,761.621,204652
552.865,752.24,204347
552.578,742.849,203471
552.291,733.448,202535
552.004,724.037,202165
551.717,714.616,201598
551.43,705.186,201526
551.143,695.746,202221
550.857,686.296,201266
550.57,676.836,199647
550.283,667.366,198047
549.996,657.887,197367
549.709,648.397,197491
549.422,638.898,196747
549.135,629.389,197009
548.848,619.869,196479
548.561,610.34,194583
548.274,600.801,193609
547.988,591.252,189886
547.701,581.693,189033
547.414,572.124,186349
547.127,562.544,187176
546.84,552.955,185845
546.553,543.356,184734
546.266,533.746,183230
545.979,524.127,180971
545.692,514.497,182064
545.405,504.857,186604
545.119,495.207,186999
544.832,485.547,180506
544.545,475.877,179158
544.258,466.197,178133
543.971,456.506,176778
543.684,446.805,173421
543.397,437.094,172300
543.11,427.373,171343
542.823,417.641,171836
542.536,407.899,172086
542.249,398.147,170949
541.963,388.384,170238
541.676,378.611,167903
541.389,368.828,167252
541.102,359.034,166862
540.815,349.23,166101
540.528,339.416,162742
540.241,329.591,159350
539.954,319.755,157459
539.667,309.91,159017
539.38,300.053,157881
539.094,290.186,149418
538.807,280.309,144668
538.52,270.421,136140
538.233,260.523,88922
537.946,250.614,67444
537.659,240.695,64043
537.372,230.765,63219
537.085,220.824,62864
536.798,210.873,62742
553.227,764.067,204626
552.94,754.688,203326
552.653,745.299,203029
552.366,735.901,201617
552.079,726.493,201052
551.792,717.075,199896
551.505,707.647,200458
551.218,698.21,201221
550.931,688.762,199898
550.644,679.305,198854
550.358,669.838,197784
550.071,660.361,195854
549.784,650.874,195885
549.497,641.377,195537
549.21,631.87,195535
548.923,622.354,195365
548.636,612.827,194386
548.349,603.291,191806
548.062,593.744,189820
547.775,584.187,187578
547.489,574.621,185569
547.202,565.044,185929
546.915,555.458,184525
546.628,545.861,183698
546.341,536.254,182995
546.054,526.637,181119
545.767,517.01,179934
545.48,507.373,183397
545.193,497.726,188910
544.906,488.068,180483
544.62,478.401,177812
544.333,468.723,177174
544.046,459.035,175556
543.759,449.337,172746
543.472,439.628,171278
543.185,429.91,170862
542.898,420.181,170715
542.611,410.441,171733
542.324,400.692,170410
542.037,390.932,168618
541.751,381.162,167491
541.464,371.381,166238
541.177,361.59,166331
540.89,351.789,165984
540.603,341.977,163966
540.316,332.155,159954
540.029,322.322,157423
539.742,312.479,157360
539.455,302.625,157765
539.168,292.761,151759
538.881,282.887,144392
538.595,273.002,142144
538.308,263.106,100437
538.021,253.2,70098
537.734,243.283,64252
537.447,233.356,63313
537.16,223.418,63005
536.873,213.47,62808
553.301,766.512,193799
553.015,757.136,192620
552.728,747.75,192110
552.441,738.354,191332
552.154,728.948,191206
551.867,719.533,190201
551.58,710.107,189989
551.293,700.672,190200
551.006,691.228,188631
550.719,681.773,188118
550.432,672.308,187502
550.146,662.834,186739
549.859,653.35,185002
549.572,643.855,185383
549.285,634.351,185144
548.998,624.837,185308
548.711,615.313,184196
548.424,605.779,182558
548.137,596.235,180732
547.85,586.681,177891
547.563,577.117,176796
547.277,567.543,176284
546.99,557.959,175478
546.703,548.365,174754
546.416,538.761,174274
546.129,529.147,172101
545.842,519.523,170847
545.555,509.888,172519
545.268,500.243,179952
544.981,490.589,172685
544.694,480.924,169544
544.407,471.249,168768
544.121,461.563,167086
543.834,451.868,165070
543.547,442.162,163863
543.26,432.446,162974
542.973,422.72,163099
542.686,412.983,163451
542.399,403.236,162303
542.112,393.479,161823
541.825,383.711,159682
541.538,373.933,158366
541.252,364.145,157411
540.965,354.347,157690
540.678,344.537,156095
540.391,334.718,152806
540.104,324.888,149843
539.817,315.048,149660
539.53,305.197,150748
539.243,295.336,146685
538.956,285.464,138868
538.669,275.582,138312
538.383,265.689,109942
538.096,255.785,73419
537.809,245.871,64683
537.522,235.947,63106
537.235,226.012,62860
536.948,216.066,62725
536.661,206.11,62631
553.089,759.583,194364
552.802,750.199,192426
552.516,740.806,191555
552.229,731.403,191098
551.942,721.99,191324
551.655,712.567,191034
551.368,703.135,190265
551.081,693.692,190334
550.794,684.24,189400
550.507,674.778,188203
550.22,665.306,187561
549.933,655.825,185572
549.647,646.333,186210
549.36,636.832,185107
549.073,627.32,185658
548.786,617.799,184754
548.499,608.267,183462
548.212,598.726,181273
547.925,589.175,178967
547.638,579.613,176731
547.351,570.042,176057
547.064,560.461,176169
546.778,550.869,175545
546.491,541.268,174284
546.204,531.656,172600
545.917,522.034,171773
545.63,512.402,171782
545.343,502.76,180063
545.056,493.108,175174
544.769,483.446,169314
544.482,473.774,169140
544.195,464.091,167154
543.909,454.398,166153
543.622,444.695,164138
543.335,434.981,163258
543.048,425.258,163086
542.761,415.524,163031
542.474,405.78,162809
542.187,396.025,161832
541.9,386.26,160719
541.613,376.485,159004
541.326,366.7,158466
541.04,356.904,158055
540.753,347.097,156297
540.466,337.281,153448
540.179,327.453,151189
539.892,317.616,150120
539.605,307.768,151215
539.318,297.909,148324
539.031,288.04,140663
538.744,278.161,138064
538.457,268.271,121796
538.17,258.37,79408
537.884,248.459,65521
537.597,238.537,63322
537.31,228.605,62926
537.023,218.662,62721
536.736,208.708,62618
536.661,206.11,62622

File: Si_onTiO2_70mA_30mW_30sec_5acc_545nm_bg.txt
Wavelength(nm), Raman shift(cm^-1), Intensity(counts)
553.364,768.549,187586
553.077,759.175,187659
552.79,749.791,186489
552.503,740.397,184953
552.216,730.994,185419
551.929,721.58,184844
551.642,712.157,185062
551.356,702.724,184118
551.069,693.282,183603
550.782,683.829,183081
550.495,674.367,182002
550.208,664.894,180153
549.921,655.412,181424
549.634,645.92,179812
549.347,636.418,179867
549.06,626.906,179394
548.773,617.385,179628
548.486,607.853,178624
548.2,598.311,175540
547.913,588.759,172536
547.626,579.197,171713
547.339,569.626,171014
547.052,560.044,170366
546.765,550.452,169271
546.478,540.85,169102
546.191,531.238,167290
545.904,521.616,164942
545.617,511.983,163389
545.331,502.341,162472
545.044,492.688,162655
544.757,483.026,162699
544.47,473.353,162272
544.183,463.67,162362
543.896,453.976,160136
543.609,444.273,158777
543.322,434.559,157471
543.035,424.835,157595
542.748,415.1,157798
542.462,405.356,157009
542.175,395.601,156921
541.888,385.836,155261
541.601,376.06,153586
541.314,366.274,153111
541.027,356.478,152880
540.74,346.671,150926
540.453,336.854,148676
540.166,327.026,144514
539.879,317.188,143997
539.593,307.339,145034
539.306,297.48,142640
539.019,287.611,135008
538.732,277.731,132321
538.445,267.84,116018
538.158,257.939,77350
537.871,248.028,64968
537.584,238.105,63163
537.297,228.172,62877
537.01,218.229,62564
536.723,208.275,62600
553.152,761.621,191086
552.865,752.24,190195
552.578,742.849,189938
552.291,733.448,189236
552.004,724.037,187982
551.717,714.616,188631
551.43,705.186,188454
551.143,695.746,187774
550.857,686.296,187183
550.57,676.836,186917
550.283,667.366,185404
549.996,657.887,183594
549.709,648.397,182553
549.422,638.898,182765
549.135,629.389,183047
548.848,619.869,182404
548.561,610.34,180926
548.274,600.801,179890
547.988,591.252,177592
547.701,581.693,175685
547.414,572.124,174348
547.127,562.544,173225
546.84,552.955,173406
546.553,543.356,172323
546.266,533.746,170461
545.979,524.127,168737
545.692,514.497,167011
545.405,504.857,166714
545.119,495.207,165833
544.832,485.547,165089
544.545,475.877,164758
544.258,466.197,165102
543.971,456.506,164314
543.684,446.805,161981
543.397,437.094,160323
543.11,427.373,159915
542.823,417.641,160627
542.536,407.899,160392
542.249,398.147,160268
541.963,388.384,158670
541.676,378.611,156343
541.389,368.828,155954
541.102,359.034,156468
540.815,349.23,154912
540.528,339.416,151669
540.241,329.591,148221
539.954,319.755,146659
539.667,309.91,147938
539.38,300.053,146042
539.094,290.186,138229
538.807,280.309,134737
538.52,270.421,127295
538.233,260.523,85644
537.946,250.614,66589
537.659,240.695,63555
537.372,230.765,62859
537.085,220.824,62651
536.798,210.873,62420
553.227,764.067,200985
552.94,754.688,199843
552.653,745.299,199164
552.366,735.901,198019
552.079,726.493,197422
551.792,717.075,197682
551.505,707.647,197934
551.218,698.21,197629
550.931,688.762,196138
550.644,679.305,195144
550.358,669.838,193440
550.071,660.361,191879
549.784,650.874,191556
549.497,641.377,192700
549.21,631.87,192224
548.923,622.354,191432
548.636,612.827,190723
548.349,603.291,188675
548.062,593.744,186116
547.775,584.187,183925
547.489,574.621,182518
547.202,565.044,182297
546.915,555.458,180267
546.628,545.861,180854
546.341,536.254,178729
546.054,526.637,177118
545.767,517.01,175284
545.48,507.373,174116
545.193,497.726,173089
544.906,488.068,172741
544.62,478.401,173725
544.333,468.723,172832
544.046,459.035,171212
543.759,449.337,169886
543.472,439.628,167794
543.185,429.91,167115
542.898,420.181,167245
542.611,410.441,167946
542.324,400.692,167114
542.037,390.932,166119
541.751,381.162,164270
541.464,371.381,162559
541.177,361.59,162584
540.89,351.789,161945
540.603,341.977,159341
540.316,332.155,155591
540.029,322.322,152588
539.742,312.479,153711
539.455,302.625,153858
539.168,292.761,146396
538.881,282.887,140105
538.595,273.002,138428
538.308,263.106,99334
538.021,253.2,69639
537.734,243.283,64265
537.447,233.356,63103
537.16,223.418,62908
536.873,213.47,62747
553.301,766.512,204075
553.015,757.136,203451
552.728,747.75,202696
552.441,738.354,200973
552.154,728.948,200837
551.867,719.533,200457
551.58,710.107,199421
551.293,700.672,200225
551.006,691.228,199430
550.719,681.773,198938
550.432,672.308,197491
550.146,662.834,196271
549.859,653.35,195138
549.572,643.855,194883
549.285,634.351,194224
548.998,624.837,194660
548.711,615.313,194028
548.424,605.779,191366
548.137,596.235,189968
547.85,586.681,187108
547.563,577.117,185616
547.277,567.543,183964
546.99,557.959,183477
546.703,548.365,183770
546.416,538.761,182581
546.129,529.147,179596
545.842,519.523,178071
545.555,509.888,176944
545.268,500.243,175456
544.981,490.589,175465
544.694,480.924,175821
544.407,471.249,174812
544.121,461.563,175400
543.834,451.868,173057
543.547,442.162,171289
543.26,432.446,169483
542.973,422.72,169434
542.686,412.983,170723
542.399,403.236,170566
542.112,393.479,169174
541.825,383.711,166340
541.538,373.933,165619
541.252,364.145,165100
540.965,354.347,164873
540.678,344.537,162709
540.391,334.718,158637
540.104,324.888,155760
539.817,315.048,155520
539.53,305.197,156163
539.243,295.336,151628
538.956,285.464,142274
538.669,275.582,142330
538.383,265.689,112576
538.096,255.785,74056
537.809,245.871,64620
537.522,235.947,63417
537.235,226.012,63068
536.948,216.066,62866
536.661,206.11,62819
553.089,759.583,209731
552.802,750.199,208359
552.516,740.806,207480
552.229,731.403,206381
551.942,721.99,205741
551.655,712.567,205840
551.368,703.135,205835
551.081,693.692,204762
550.794,684.24,204558
550.507,674.778,203093
550.22,665.306,201318
549.933,655.825,200017
549.647,646.333,199692
549.36,636.832,199969
549.073,627.32,200279
548.786,617.799,198985
548.499,608.267,197755
548.212,598.726,195872
547.925,589.175,192859
547.638,579.613,190562
547.351,570.042,189484
547.064,560.461,189777
546.778,550.869,188755
546.491,541.268,188022
546.204,531.656,186324
545.917,522.034,182807
545.63,512.402,181374
545.343,502.76,180580
545.056,493.108,179518
544.769,483.446,180196
544.482,473.774,180239
544.195,464.091,179557
543.909,454.398,178312
543.622,444.695,176024
543.335,434.981,174256
543.048,425.258,174254
542.761,415.524,174020
542.474,405.78,174810
542.187,396.025,174097
541.9,386.26,171576
541.613,376.485,170274
541.326,366.7,168951
541.04,356.904,168902
540.753,347.097,167168
540.466,337.281,164460
540.179,327.453,159564
539.892,317.616,159392
539.605,307.768,160793
539.318,297.909,156307
539.031,288.04,147466
538.744,278.161,145701
538.457,268.271,127938
538.17,258.37,81448
537.884,248.459,66116
537.597,238.537,63450
537.31,228.605,63131
537.023,218.662,62857
536.736,208.708,62836
536.661,206.11,62832

File: Si_onTiO2_80mA_30mW_30sec_5acc_517nm.txt
Wavelength(nm), Raman shift(cm^-1), Intensity(counts)
525.364,-194.586,108328
525.077,-204.986,109319
524.79,-215.398,110505
524.503,-225.821,111427
524.216,-236.256,112496
523.929,-246.702,115230
523.642,-257.159,125713
523.356,-267.628,185748
523.069,-278.109,354627
522.782,-288.6,462592
522.495,-299.104,481513
522.208,-309.619,484315
521.921,-320.145,478444
521.634,-330.684,474938
521.347,-341.233,471336
521.06,-351.795,466322
520.773,-362.368,459356
520.486,-372.952,451959
520.2,-383.548,447906
519.913,-394.156,445864
519.626,-404.776,442286
519.339,-415.408,436731
519.052,-426.051,427297
518.765,-436.706,420889
518.478,-447.373,414345
518.191,-458.051,415005
517.904,-468.742,409655
517.617,-479.444,407016
517.331,-490.158,407374
517.044,-500.884,404552
516.757,-511.622,397072
516.47,-522.372,394153
516.183,-533.134,392894
515.896,-543.907,388131
515.609,-554.693,385365
515.322,-565.491,381843
515.035,-576.301,379214
514.748,-587.123,377776
514.462,-597.957,373989
514.175,-608.803,370291
513.888,-619.661,366392
513.601,-630.531,360204
513.314,-641.413,357813
513.027,-652.308,352840
512.74,-663.215,347016
512.453,-674.134,344489
512.166,-685.065,338711
511.879,-696.008,331611
511.593,-706.964,326695
511.306,-717.932,321921
511.019,-728.913,316964
510.732,-739.905,312803
510.445,-750.91,307006
510.158,-761.928,302293
509.871,-772.958,295199
509.584,-784,290266
509.297,-795.055,284034
509.01,-806.122,280038
508.723,-817.201,276881
525.152,-202.272,102277
524.865,-212.681,103217
524.578,-223.101,104281
524.291,-233.532,105236
524.004,-243.976,106438
523.717,-254.43,111846
523.43,-264.896,141363
523.143,-275.373,257708
522.857,-285.862,364998
522.57,-296.363,390243
522.283,-306.875,393245
521.996,-317.398,391746
521.709,-327.933,387128
521.422,-338.48,385014
521.135,-349.038,381887
520.848,-359.608,375373
520.561,-370.19,368744
520.274,-380.783,366505
519.988,-391.388,361601
519.701,-402.005,362535
519.414,-412.633,355972
519.127,-423.273,350128
518.84,-433.925,342735
518.553,-444.589,337655
518.266,-455.264,335086
517.979,-465.952,333466
517.692,-476.651,331378
517.405,-487.362,331415
517.119,-498.085,332486
516.832,-508.82,324392
516.545,-519.566,320604
516.258,-530.325,319608
515.971,-541.096,316419
515.684,-551.878,314257
515.397,-562.673,311446
515.11,-573.48,308788
514.823,-584.298,307021
514.536,-595.129,304784
514.249,-605.972,302697
513.963,-616.827,298763
513.676,-627.694,296618
513.389,-638.573,291817
513.102,-649.465,289049
512.815,-660.368,284785
512.528,-671.284,280681
512.241,-682.212,277370
511.954,-693.152,271706
511.667,-704.105,267367
511.38,-715.07,264549
511.094,-726.047,259957
510.807,-737.036,257511
510.52,-748.038,252758
510.233,-759.052,248824
509.946,-770.079,243902
509.659,-781.118,238789
509.372,-792.17,235934
509.085,-803.233,231058
508.798,-814.31,228946
525.227,-199.558,99774
524.94,-209.964,100902
524.653,-220.381,101788
524.366,-230.81,102402
524.079,-241.25,103633
523.792,-251.702,107343
523.505,-262.165,123721
523.218,-272.639,206462
522.931,-283.125,321094
522.644,-293.622,360901
522.358,-304.131,365471
522.071,-314.652,362948
521.784,-325.184,359629
521.497,-335.728,356368
521.21,-346.283,354242
520.923,-356.85,350306
520.636,-367.428,344936
520.349,-378.019,340680
520.062,-388.62,337121
519.775,-399.234,335694
519.489,-409.859,331567
519.202,-420.496,325432
518.915,-431.145,319145
518.628,-441.806,315691
518.341,-452.478,312161
518.054,-463.163,310330
517.767,-473.859,308344
517.48,-484.567,305694
517.193,-495.286,310453
516.906,-506.018,302871
516.62,-516.762,298425
516.333,-527.517,296361
516.046,-538.285,294053
515.759,-549.064,291692
515.472,-559.856,290185
515.185,-570.659,286463
514.898,-581.475,286217
514.611,-592.303,283113
514.324,-603.142,281122
514.037,-613.994,278021
513.751,-624.858,274605
513.464,-635.734,270513
513.177,-646.622,268117
512.89,-657.523,265231
512.603,-668.435,261916
512.316,-679.36,258267
512.029,-690.297,253935
511.742,-701.247,250148
511.455,-712.208,246680
511.168,-723.182,243126
510.881,-734.168,240590
510.595,-745.167,236446
510.308,-756.178,232432
510.021,-767.201,228465
509.734,-778.237,224206
509.447,-789.285,220833
509.16,-800.346,217992
508.873,-811.419,213948
525.301,-196.846,101361
525.015,-207.249,102646
524.728,-217.663,102757
524.441,-228.088,104330
524.154,-238.526,105321
523.867,-248.974,107990
523.58,-259.434,119436
523.293,-269.905,182273
523.006,-280.388,314397
522.719,-290.883,376239
522.432,-301.389,386286
522.146,-311.906,385298
521.859,-322.435,382188
521.572,-332.976,378268
521.285,-343.528,375141
520.998,-354.092,371131
520.711,-364.668,365411
520.424,-375.255,359118
520.137,-385.854,356318
519.85,-396.464,355058
519.563,-407.086,352642
519.277,-417.72,345231
518.99,-428.366,339649
518.703,-439.024,334531
518.416,-449.693,330781
518.129,-460.374,327497
517.842,-471.067,325612
517.555,-481.772,324770
517.268,-492.489,325298
516.981,-503.217,322193
516.694,-513.958,317965
516.407,-524.71,313739
516.121,-535.475,311854
515.834,-546.251,308982
515.547,-557.039,306725
515.26,-567.84,304771
514.973,-578.652,302293
514.686,-589.477,299963
514.399,-600.313,298922
514.112,-611.162,295183
513.825,-622.023,291021
513.538,-632.896,287502
513.252,-643.781,283576
512.965,-654.678,280872
512.678,-665.587,278226
512.391,-676.509,273210
512.104,-687.443,269148
511.817,-698.389,265212
511.53,-709.347,261003
511.243,-720.318,258347
510.956,-731.301,253983
510.669,-742.297,250130
510.383,-753.304,246650
510.096,-764.325,242874
509.809,-775.357,238124
509.522,-786.402,233543
509.235,-797.459,230265
508.948,-808.529,226957
508.661,-819.612,223159
525.089,-204.534,99656
524.802,-214.945,100723
524.516,-225.368,101401
524.229,-235.802,102180
523.942,-246.247,104308
523.655,-256.704,111838
523.368,-267.173,150197
523.081,-277.653,267603
522.794,-288.144,343502
522.507,-298.647,358407
522.22,-309.161,360944
521.933,-319.687,355850
521.647,-330.225,353313
521.36,-340.774,352205
521.073,-351.335,348738
520.786,-361.908,342778
520.499,-372.492,337510
520.212,-383.088,333919
519.925,-393.695,332052
519.638,-404.314,330174
519.351,-414.945,325289
519.064,-425.588,317564
518.778,-436.242,313714
518.491,-446.909,309204
518.204,-457.587,306513
517.917,-468.277,305902
517.63,-478.978,303672
517.343,-489.692,304197
517.056,-500.417,304217
516.769,-511.155,295396
516.482,-521.904,292684
516.195,-532.665,291244
515.909,-543.439,288728
515.622,-554.224,287993
515.335,-565.021,284532
515.048,-575.831,283522
514.761,-586.652,281781
514.474,-597.485,280047
514.187,-608.331,276670
513.9,-619.188,273354
513.613,-630.058,269079
513.326,-640.94,266731
513.04,-651.834,263867
512.753,-662.74,260774
512.466,-673.659,257159
512.179,-684.589,253158
511.892,-695.532,249094
511.605,-706.488,244881
511.318,-717.455,241022
511.031,-728.435,239634
510.744,-739.427,236420
510.457,-750.432,231476
510.17,-761.448,226891
509.884,-772.478,224198
509.597,-783.52,219992
509.31,-794.574,216232
509.023,-805.64,213736
508.736,-816.719,210481
508.661,-819.612,208359