Folder: flash_scratch/tomke/20240809/raw_data (part 4)

File: Si_onTiO2_60mA_30mW_30sec_5acc_517nm.txt
Wavelength(nm), Raman shift(cm^-1), Intensity(counts)
525.364,-194.586,72030
525.077,-204.986,72422
524.79,-215.398,72583
524.503,-225.821,73239
524.216,-236.256,73344
523.929,-246.702,73586
523.642,-257.159,75204
523.356,-267.628,83682
523.069,-278.109,105576
522.782,-288.6,118928
522.495,-299.104,121046
522.208,-309.619,121575
521.921,-320.145,119728
521.634,-330.684,119343
521.347,-341.233,118067
521.06,-351.795,117467
520.773,-362.368,116425
520.486,-372.952,115271
520.2,-383.548,114516
519.913,-394.156,113952
519.626,-404.776,112724
519.339,-415.408,111302
519.052,-426.051,110213
518.765,-436.706,108666
518.478,-447.373,107725
518.191,-458.051,107205
517.904,-468.742,106656
517.617,-479.444,106922
517.331,-490.158,108837
517.044,-500.884,113769
516.757,-511.622,106517
516.47,-522.372,104137
516.183,-533.134,103605
515.896,-543.907,103380
515.609,-554.693,102832
515.322,-565.491,101684
515.035,-576.301,101252
514.748,-587.123,101624
514.462,-597.957,101182
514.175,-608.803,100314
513.888,-619.661,99620
513.601,-630.531,98966
513.314,-641.413,98688
513.027,-652.308,97565
512.74,-663.215,97473
512.453,-674.134,96304
512.166,-685.065,95978
511.879,-696.008,94978
511.593,-706.964,94763
511.306,-717.932,93752
511.019,-728.913,93173
510.732,-739.905,92634
510.445,-750.91,91613
510.158,-761.928,90448
509.871,-772.958,90458
509.584,-784,89647
509.297,-795.055,89090
509.01,-806.122,88546
508.723,-817.201,87799
525.152,-202.272,70943
524.865,-212.681,71242
524.578,-223.101,71378
524.291,-233.532,71730
524.004,-243.976,71716
523.717,-254.43,72392
523.43,-264.896,76812
523.143,-275.373,92746
522.857,-285.862,106453
522.57,-296.363,109854
522.283,-306.875,109986
521.996,-317.398,109149
521.709,-327.933,108318
521.422,-338.48,107595
521.135,-349.038,107051
520.848,-359.608,106236
520.561,-370.19,104288
520.274,-380.783,104135
519.988,-391.388,102984
519.701,-402.005,102719
519.414,-412.633,101920
519.127,-423.273,100717
518.84,-433.925,99253
518.553,-444.589,98835
518.266,-455.264,97715
517.979,-465.952,97421
517.692,-476.651,97422
517.405,-487.362,97919
517.119,-498.085,104384
516.832,-508.82,99018
516.545,-519.566,95658
516.258,-530.325,95044
515.971,-541.096,93901
515.684,-551.878,93775
515.397,-562.673,93511
515.11,-573.48,93435
514.823,-584.298,92836
514.536,-595.129,92403
514.249,-605.972,92301
513.963,-616.827,91974
513.676,-627.694,90862
513.389,-638.573,90461
513.102,-649.465,90327
512.815,-660.368,89250
512.528,-671.284,89269
512.241,-682.212,88264
511.954,-693.152,87979
511.667,-704.105,87277
511.38,-715.07,86927
511.094,-726.047,86058
510.807,-737.036,86443
510.52,-748.038,85439
510.233,-759.052,85111
509.946,-770.079,84000
509.659,-781.118,83821
509.372,-792.17,83193
509.085,-803.233,82503
508.798,-814.31,82087
525.227,-199.558,69179
524.94,-209.964,69432
524.653,-220.381,69724
524.366,-230.81,69921
524.079,-241.25,70275
523.792,-251.702,70456
523.505,-262.165,72373
523.218,-272.639,82493
522.931,-283.125,95434
522.644,-293.622,99426
522.358,-304.131,99298
522.071,-314.652,98873
521.784,-325.184,98387
521.497,-335.728,97319
521.21,-346.283,96930
520.923,-356.85,96018
520.636,-367.428,95283
520.349,-378.019,94517
520.062,-388.62,94197
519.775,-399.234,93864
519.489,-409.859,92859
519.202,-420.496,92140
518.915,-431.145,91007
518.628,-441.806,90471
518.341,-452.478,89636
518.054,-463.163,89637
517.767,-473.859,89152
517.48,-484.567,89648
517.193,-495.286,94095
516.906,-506.018,93460
516.62,-516.762,88510
516.333,-527.517,87339
516.046,-538.285,86654
515.759,-549.064,86263
515.472,-559.856,85961
515.185,-570.659,85688
514.898,-581.475,85608
514.611,-592.303,85560
514.324,-603.142,85280
514.037,-613.994,84587
513.751,-624.858,84193
513.464,-635.734,83662
513.177,-646.622,83072
512.89,-657.523,83179
512.603,-668.435,82495
512.316,-679.36,82295
512.029,-690.297,81709
511.742,-701.247,80978
511.455,-712.208,81282
511.168,-723.182,80448
510.881,-734.168,80337
510.595,-745.167,79876
510.308,-756.178,79088
510.021,-767.201,78528
509.734,-778.237,78660
509.447,-789.285,78113
509.16,-800.346,77616
508.873,-811.419,77512
525.301,-196.846,69431
525.015,-207.249,69656
524.728,-217.663,69793
524.441,-228.088,69864
524.154,-238.526,69950
523.867,-248.974,70319
523.58,-259.434,71570
523.293,-269.905,78913
523.006,-280.388,92922
522.719,-290.883,99534
522.432,-301.389,100075
522.146,-311.906,99237
521.859,-322.435,98391
521.572,-332.976,98220
521.285,-343.528,97176
520.998,-354.092,96629
520.711,-364.668,96290
520.424,-375.255,95464
520.137,-385.854,94503
519.85,-396.464,93697
519.563,-407.086,93707
519.277,-417.72,92020
518.99,-428.366,91187
518.703,-439.024,90471
518.416,-449.693,89718
518.129,-460.374,89802
517.842,-471.067,89159
517.555,-481.772,89508
517.268,-492.489,92500
516.981,-503.217,96270
516.694,-513.958,89141
516.407,-524.71,87190
516.121,-535.475,86741
515.834,-546.251,86927
515.547,-557.039,86282
515.26,-567.84,85881
514.973,-578.652,85680
514.686,-589.477,85459
514.399,-600.313,85179
514.112,-611.162,85077
513.825,-622.023,84358
513.538,-632.896,84301
513.252,-643.781,83343
512.965,-654.678,82883
512.678,-665.587,82665
512.391,-676.509,82329
512.104,-687.443,81785
511.817,-698.389,81603
511.53,-709.347,80750
511.243,-720.318,80758
510.956,-731.301,79993
510.669,-742.297,79839
510.383,-753.304,79578
510.096,-764.325,78937
509.809,-775.357,78680
509.522,-786.402,78217
509.235,-797.459,77639
508.948,-808.529,77452
508.661,-819.612,76896
525.089,-204.534,69844
524.802,-214.945,70244
524.516,-225.368,70695
524.229,-235.802,70530
523.942,-246.247,70752
523.655,-256.704,71703
523.368,-267.173,76834
523.081,-277.653,92140
522.794,-288.144,102351
522.507,-298.647,103289
522.22,-309.161,103564
521.933,-319.687,102198
521.647,-330.225,101353
521.36,-340.774,100899
521.073,-351.335,100275
520.786,-361.908,99281
520.499,-372.492,98487
520.212,-383.088,97538
519.925,-393.695,97605
519.638,-404.314,96473
519.351,-414.945,95748
519.064,-425.588,94541
518.778,-436.242,93683
518.491,-446.909,92185
518.204,-457.587,92734
517.917,-468.277,92107
517.63,-478.978,92074
517.343,-489.692,93319
517.056,-500.417,103426
516.769,-511.155,92991
516.482,-521.904,90163
516.195,-532.665,89972
515.909,-543.439,89490
515.622,-554.224,88664
515.335,-565.021,88894
515.048,-575.831,88050
514.761,-586.652,87875
514.474,-597.485,87759
514.187,-608.331,87590
513.9,-619.188,86588
513.613,-630.058,86642
513.326,-640.94,86088
513.04,-651.834,85543
512.753,-662.74,85080
512.466,-673.659,84651
512.179,-684.589,84405
511.892,-695.532,83566
511.605,-706.488,83200
511.318,-717.455,82390
511.031,-728.435,82248
510.744,-739.427,81933
510.457,-750.432,81275
510.17,-761.448,81184
509.884,-772.478,80831
509.597,-783.52,80085
509.31,-794.574,79934
509.023,-805.64,79122
508.736,-816.719,78949
508.661,-819.612,78933

File: Si_onTiO2_60mA_30mW_30sec_5acc_517nm_02.txt
Wavelength(nm), Raman shift(cm^-1), Intensity(counts)
525.364,-194.586,70275
525.077,-204.986,71442
524.79,-215.398,71308
524.503,-225.821,71690
524.216,-236.256,71689
523.929,-246.702,72016
523.642,-257.159,73415
523.356,-267.628,79660
523.069,-278.109,97933
522.782,-288.6,108809
522.495,-299.104,111233
522.208,-309.619,110198
521.921,-320.145,110141
521.634,-330.684,109004
521.347,-341.233,108480
521.06,-351.795,107260
520.773,-362.368,116563
520.486,-372.952,104987
520.2,-383.548,104607
519.913,-394.156,104031
519.626,-404.776,103118
519.339,-415.408,102494
519.052,-426.051,101528
518.765,-436.706,99635
518.478,-447.373,99012
518.191,-458.051,98366
517.904,-468.742,98340
517.617,-479.444,97991
517.331,-490.158,100238
517.044,-500.884,105670
516.757,-511.622,98208
516.47,-522.372,95942
516.183,-533.134,95692
515.896,-543.907,94794
515.609,-554.693,94273
515.322,-565.491,94064
515.035,-576.301,94134
514.748,-587.123,93456
514.462,-597.957,92986
514.175,-608.803,92913
513.888,-619.661,92522
513.601,-630.531,91689
513.314,-641.413,91355
513.027,-652.308,90294
512.74,-663.215,89947
512.453,-674.134,89617
512.166,-685.065,88925
511.879,-696.008,88396
511.593,-706.964,87666
511.306,-717.932,87528
511.019,-728.913,86645
510.732,-739.905,86464
510.445,-750.91,86006
510.158,-761.928,84759
509.871,-772.958,84608
509.584,-784,83700
509.297,-795.055,83185
509.01,-806.122,83261
508.723,-817.201,82676
525.152,-202.272,71330
524.865,-212.681,71774
524.578,-223.101,71862
524.291,-233.532,71890
524.004,-243.976,72140
523.717,-254.43,73161
523.43,-264.896,77754
523.143,-275.373,94894
522.857,-285.862,109602
522.57,-296.363,113027
522.283,-306.875,113305
521.996,-317.398,112947
521.709,-327.933,111844
521.422,-338.48,110875
521.135,-349.038,110709
520.848,-359.608,108856
520.561,-370.19,108031
520.274,-380.783,107279
519.988,-391.388,106674
519.701,-402.005,106062
519.414,-412.633,104868
519.127,-423.273,103880
518.84,-433.925,102697
518.553,-444.589,101154
518.266,-455.264,100673
517.979,-465.952,100308
517.692,-476.651,100051
517.405,-487.362,101144
517.119,-498.085,106934
516.832,-508.82,101915
516.545,-519.566,98117
516.258,-530.325,97138
515.971,-541.096,97053
515.684,-551.878,96465
515.397,-562.673,96231
515.11,-573.48,96063
514.823,-584.298,95627
514.536,-595.129,95588
514.249,-605.972,94553
513.963,-616.827,94340
513.676,-627.694,93518
513.389,-638.573,93055
513.102,-649.465,92630
512.815,-660.368,91724
512.528,-671.284,91678
512.241,-682.212,90967
511.954,-693.152,90304
511.667,-704.105,89519
511.38,-715.07,88668
511.094,-726.047,88290
510.807,-737.036,87733
510.52,-748.038,87022
510.233,-759.052,86530
509.946,-770.079,85772
509.659,-781.118,85285
509.372,-792.17,85084
509.085,-803.233,84517
508.798,-814.31,83863
525.227,-199.558,71962
524.94,-209.964,72034
524.653,-220.381,72322
524.366,-230.81,72463
524.079,-241.25,72683
523.792,-251.702,73166
523.505,-262.165,76103
523.218,-272.639,90373
522.931,-283.125,109425
522.644,-293.622,115460
522.358,-304.131,116132
522.071,-314.652,115021
521.784,-325.184,114373
521.497,-335.728,113759
521.21,-346.283,112632
520.923,-356.85,112268
520.636,-367.428,110605
520.349,-378.019,109447
520.062,-388.62,109653
519.775,-399.234,108365
519.489,-409.859,107809
519.202,-420.496,106104
518.915,-431.145,104896
518.628,-441.806,103519
518.341,-452.478,103286
518.054,-463.163,102672
517.767,-473.859,102270
517.48,-484.567,102723
517.193,-495.286,107452
516.906,-506.018,105722
516.62,-516.762,100587
516.333,-527.517,100004
516.046,-538.285,98856
515.759,-549.064,98132
515.472,-559.856,98034
515.185,-570.659,97667
514.898,-581.475,97242
514.611,-592.303,97484
514.324,-603.142,96622
514.037,-613.994,96218
513.751,-624.858,95844
513.464,-635.734,95342
513.177,-646.622,94325
512.89,-657.523,93947
512.603,-668.435,93476
512.316,-679.36,92421
512.029,-690.297,91648
511.742,-701.247,91523
511.455,-712.208,90737
511.168,-723.182,90568
510.881,-734.168,89825
510.595,-745.167,88982
510.308,-756.178,88363
510.021,-767.201,87914
509.734,-778.237,86691
509.447,-789.285,86621
509.16,-800.346,85878
508.873,-811.419,85188
525.301,-196.846,72123
525.015,-207.249,72194
524.728,-217.663,72361
524.441,-228.088,72576
524.154,-238.526,72797
523.867,-248.974,73466
523.58,-259.434,75557
523.293,-269.905,86001
523.006,-280.388,107431
522.719,-290.883,117351
522.432,-301.389,118420
522.146,-311.906,117748
521.859,-322.435,116744
521.572,-332.976,115802
521.285,-343.528,115581
520.998,-354.092,114354
520.711,-364.668,112976
520.424,-375.255,112327
520.137,-385.854,111217
519.85,-396.464,110292
519.563,-407.086,110130
519.277,-417.72,108058
518.99,-428.366,107203
518.703,-439.024,106020
518.416,-449.693,104990
518.129,-460.374,105013
517.842,-471.067,104531
517.555,-481.772,104521
517.268,-492.489,107029
516.981,-503.217,109829
516.694,-513.958,103436
516.407,-524.71,101577
516.121,-535.475,101262
515.834,-546.251,100655
515.547,-557.039,100182
515.26,-567.84,99586
514.973,-578.652,99093
514.686,-589.477,99151
514.399,-600.313,98401
514.112,-611.162,98043
513.825,-622.023,97500
513.538,-632.896,96946
513.252,-643.781,96333
512.965,-654.678,95338
512.678,-665.587,95063
512.391,-676.509,94053
512.104,-687.443,93870
511.817,-698.389,92684
511.53,-709.347,92201
511.243,-720.318,91591
510.956,-731.301,91245
510.669,-742.297,90578
510.383,-753.304,89475
510.096,-764.325,88865
509.809,-775.357,88539
509.522,-786.402,88089
509.235,-797.459,87567
508.948,-808.529,86824
508.661,-819.612,85774
525.089,-204.534,72220
524.802,-214.945,72515
524.516,-225.368,72939
524.229,-235.802,73199
523.942,-246.247,73420
523.655,-256.704,74889
523.368,-267.173,82051
523.081,-277.653,103630
522.794,-288.144,117487
522.507,-298.647,119968
522.22,-309.161,119625
521.933,-319.687,118859
521.647,-330.225,117839
521.36,-340.774,116931
521.073,-351.335,116576
520.786,-361.908,115388
520.499,-372.492,113360
520.212,-383.088,112899
519.925,-393.695,112257
519.638,-404.314,111411
519.351,-414.945,110173
519.064,-425.588,109420
518.778,-436.242,107034
518.491,-446.909,106831
518.204,-457.587,106149
517.917,-468.277,105830
517.63,-478.978,105629
517.343,-489.692,107234
517.056,-500.417,113093
516.769,-511.155,105359
516.482,-521.904,103280
516.195,-532.665,102208
515.909,-543.439,101638
515.622,-554.224,101873
515.335,-565.021,100618
515.048,-575.831,100694
514.761,-586.652,100736
514.474,-597.485,99727
514.187,-608.331,99232
513.9,-619.188,99261
513.613,-630.058,97937
513.326,-640.94,97159
513.04,-651.834,96920
512.753,-662.74,95935
512.466,-673.659,95661
512.179,-684.589,94773
511.892,-695.532,94275
511.605,-706.488,93725
511.318,-717.455,92633
511.031,-728.435,92277
510.744,-739.427,91654
510.457,-750.432,90812
510.17,-761.448,90170
509.884,-772.478,89600
509.597,-783.52,88535
509.31,-794.574,88322
509.023,-805.64,87480
508.736,-816.719,87205
508.661,-819.612,86972

File: Si_onTiO2_60mA_30mW_30sec_5acc_517nm_bg.txt
Wavelength(nm), Raman shift(cm^-1), Intensity(counts)
525.364,-194.586,72028
525.077,-204.986,72716
524.79,-215.398,72712
524.503,-225.821,72891
524.216,-236.256,73052
523.929,-246.702,73597
523.642,-257.159,74961
523.356,-267.628,82512
523.069,-278.109,103689
522.782,-288.6,116203
522.495,-299.104,118377
522.208,-309.619,118982
521.921,-320.145,117992
521.634,-330.684,117444
521.347,-341.233,116479
521.06,-351.795,115919
520.773,-362.368,114512
520.486,-372.952,113449
520.2,-383.548,112283
519.913,-394.156,111693
519.626,-404.776,111181
519.339,-415.408,109917
519.052,-426.051,108663
518.765,-436.706,107560
518.478,-447.373,106392
518.191,-458.051,106104
517.904,-468.742,104955
517.617,-479.444,103883
517.331,-490.158,103667
517.044,-500.884,102961
516.757,-511.622,102730
516.47,-522.372,102104
516.183,-533.134,102177
515.896,-543.907,101538
515.609,-554.693,101381
515.322,-565.491,100981
515.035,-576.301,100806
514.748,-587.123,99711
514.462,-597.957,100049
514.175,-608.803,99229
513.888,-619.661,98608
513.601,-630.531,98336
513.314,-641.413,97251
513.027,-652.308,96509
512.74,-663.215,96617
512.453,-674.134,95495
512.166,-685.065,95001
511.879,-696.008,94621
511.593,-706.964,93707
511.306,-717.932,92868
511.019,-728.913,92034
510.732,-739.905,91283
510.445,-750.91,91200
510.158,-761.928,89901
509.871,-772.958,89437
509.584,-784,88729
509.297,-795.055,88054
509.01,-806.122,87501
508.723,-817.201,86725
525.152,-202.272,72618
524.865,-212.681,73091
524.578,-223.101,73487
524.291,-233.532,73615
524.004,-243.976,73791
523.717,-254.43,74621
523.43,-264.896,80534
523.143,-275.373,99919
522.857,-285.862,117429
522.57,-296.363,122188
522.283,-306.875,122298
521.996,-317.398,121672
521.709,-327.933,120644
521.422,-338.48,119601
521.135,-349.038,119718
520.848,-359.608,118042
520.561,-370.19,117057
520.274,-380.783,116295
519.988,-391.388,115030
519.701,-402.005,114552
519.414,-412.633,113676
519.127,-423.273,112426
518.84,-433.925,110679
518.553,-444.589,109493
518.266,-455.264,108745
517.979,-465.952,108275
517.692,-476.651,107480
517.405,-487.362,106715
517.119,-498.085,106086
516.832,-508.82,105695
516.545,-519.566,105490
516.258,-530.325,105100
515.971,-541.096,104967
515.684,-551.878,104369
515.397,-562.673,103531
515.11,-573.48,102908
514.823,-584.298,102978
514.536,-595.129,102888
514.249,-605.972,102316
513.963,-616.827,101712
513.676,-627.694,100589
513.389,-638.573,99640
513.102,-649.465,99451
512.815,-660.368,98708
512.528,-671.284,97991
512.241,-682.212,97190
511.954,-693.152,96987
511.667,-704.105,95739
511.38,-715.07,94891
511.094,-726.047,94912
510.807,-737.036,94235
510.52,-748.038,93001
510.233,-759.052,92483
509.946,-770.079,91878
509.659,-781.118,90982
509.372,-792.17,89712
509.085,-803.233,89751
508.798,-814.31,88902
525.227,-199.558,72339
524.94,-209.964,72910
524.653,-220.381,73330
524.366,-230.81,73264
524.079,-241.25,73517
523.792,-251.702,74457
523.505,-262.165,77522
523.218,-272.639,92973
522.931,-283.125,113640
522.644,-293.622,120496
522.358,-304.131,120935
522.071,-314.652,120613
521.784,-325.184,120086
521.497,-335.728,140790
521.21,-346.283,118154
520.923,-356.85,117463
520.636,-367.428,116028
520.349,-378.019,114748
520.062,-388.62,114678
519.775,-399.234,113476
519.489,-409.859,113066
519.202,-420.496,110864
518.915,-431.145,110054
518.628,-441.806,109015
518.341,-452.478,107619
518.054,-463.163,106859
517.767,-473.859,106309
517.48,-484.567,105607
517.193,-495.286,105408
516.906,-506.018,104444
516.62,-516.762,104869
516.333,-527.517,104179
516.046,-538.285,103940
515.759,-549.064,103138
515.472,-559.856,103123
515.185,-570.659,102890
514.898,-581.475,101955
514.611,-592.303,101901
514.324,-603.142,101059
514.037,-613.994,101010
513.751,-624.858,99923
513.464,-635.734,99250
513.177,-646.622,98393
512.89,-657.523,97953
512.603,-668.435,97381
512.316,-679.36,97074
512.029,-690.297,95672
511.742,-701.247,95137
511.455,-712.208,94797
511.168,-723.182,93734
510.881,-734.168,93180
510.595,-745.167,92497
510.308,-756.178,91819
510.021,-767.201,91659
509.734,-778.237,90219
509.447,-789.285,89967
509.16,-800.346,89278
508.873,-811.419,88745
525.301,-196.846,65625
525.015,-207.249,65868
524.728,-217.663,65898
524.441,-228.088,66048
524.154,-238.526,66141
523.867,-248.974,66152
523.58,-259.434,66835
523.293,-269.905,70017
523.006,-280.388,76056
522.719,-290.883,78845
522.432,-301.389,79249
522.146,-311.906,79163
521.859,-322.435,78489
521.572,-332.976,78606
521.285,-343.528,78264
520.998,-354.092,77831
520.711,-364.668,77005
520.424,-375.255,76670
520.137,-385.854,76569
519.85,-396.464,76354
519.563,-407.086,75985
519.277,-417.72,75483
518.99,-428.366,74760
518.703,-439.024,74298
518.416,-449.693,73859
518.129,-460.374,73690
517.842,-471.067,73279
517.555,-481.772,73218
517.268,-492.489,72995
516.981,-503.217,72528
516.694,-513.958,72540
516.407,-524.71,72341
516.121,-535.475,72294
515.834,-546.251,72351
515.547,-557.039,72241
515.26,-567.84,71972
514.973,-578.652,71932
514.686,-589.477,71959
514.399,-600.313,71683
514.112,-611.162,71555
513.825,-622.023,71136
513.538,-632.896,71329
513.252,-643.781,70681
512.965,-654.678,70735
512.678,-665.587,70810
512.391,-676.509,70340
512.104,-687.443,70061
511.817,-698.389,69835
511.53,-709.347,69826
511.243,-720.318,69554
510.956,-731.301,69555
510.669,-742.297,69432
510.383,-753.304,69063
510.096,-764.325,69026
509.809,-775.357,68729
509.522,-786.402,68473
509.235,-797.459,68284
508.948,-808.529,67979
508.661,-819.612,67942
525.089,-204.534,64577
524.802,-214.945,64724
524.516,-225.368,64802
524.229,-235.802,64736
523.942,-246.247,64790
523.655,-256.704,65101
523.368,-267.173,66546
523.081,-277.653,70855
522.794,-288.144,73645
522.507,-298.647,74061
522.22,-309.161,74046
521.933,-319.687,73719
521.647,-330.225,73395
521.36,-340.774,73303
521.073,-351.335,73113
520.786,-361.908,72850
520.499,-372.492,72509
520.212,-383.088,72107
519.925,-393.695,71915
519.638,-404.314,71571
519.351,-414.945,71304
519.064,-425.588,71087
518.778,-436.242,70521
518.491,-446.909,70179
518.204,-457.587,69990
517.917,-468.277,69903
517.63,-478.978,69738
517.343,-489.692,69406
517.056,-500.417,69349
516.769,-511.155,69074
516.482,-521.904,69116
516.195,-532.665,69088
515.909,-543.439,68976
515.622,-554.224,68779
515.335,-565.021,68835
515.048,-575.831,68447
514.761,-586.652,68685
514.474,-597.485,68531
514.187,-608.331,68565
513.9,-619.188,68080
513.613,-630.058,67944
513.326,-640.94,68060
513.04,-651.834,67616
512.753,-662.74,67829
512.466,-673.659,67642
512.179,-684.589,67390
511.892,-695.532,67176
511.605,-706.488,66959
511.318,-717.455,66828
511.031,-728.435,66996
510.744,-739.427,66727
510.457,-750.432,66530
510.17,-761.448,66533
509.884,-772.478,66355
509.597,-783.52,66194
509.31,-794.574,66051
509.023,-805.64,65966
508.736,-816.719,65852
508.661,-819.612,65852