Folder: flash_scratch/tomke/20240809/raw_data (part 3)

File: Si_onTiO2_40mA_30mW_30sec_5acc_517nm_bg.txt
Wavelength(nm), Raman shift(cm^-1), Intensity(counts)
525.364,-194.586,62250
525.077,-204.986,62518
524.79,-215.398,62777
524.503,-225.821,62766
524.216,-236.256,62751
523.929,-246.702,62768
523.642,-257.159,62931
523.356,-267.628,63514
523.069,-278.109,65369
522.782,-288.6,66386
522.495,-299.104,66591
522.208,-309.619,66547
521.921,-320.145,66446
521.634,-330.684,66150
521.347,-341.233,65990
521.06,-351.795,65942
520.773,-362.368,65828
520.486,-372.952,65907
520.2,-383.548,65719
519.913,-394.156,65558
519.626,-404.776,65204
519.339,-415.408,65132
519.052,-426.051,64806
518.765,-436.706,64765
518.478,-447.373,64493
518.191,-458.051,64385
517.904,-468.742,64282
517.617,-479.444,64171
517.331,-490.158,64099
517.044,-500.884,64058
516.757,-511.622,63925
516.47,-522.372,63985
516.183,-533.134,63926
515.896,-543.907,63961
515.609,-554.693,63745
515.322,-565.491,63549
515.035,-576.301,63810
514.748,-587.123,63678
514.462,-597.957,63548
514.175,-608.803,63464
513.888,-619.661,63564
513.601,-630.531,63635
513.314,-641.413,63447
513.027,-652.308,63431
512.74,-663.215,63337
512.453,-674.134,63154
512.166,-685.065,63292
511.879,-696.008,63146
511.593,-706.964,63245
511.306,-717.932,63123
511.019,-728.913,62995
510.732,-739.905,63089
510.445,-750.91,62846
510.158,-761.928,62724
509.871,-772.958,62731
509.584,-784,62723
509.297,-795.055,62672
509.01,-806.122,62447
508.723,-817.201,62533
525.152,-202.272,62701
524.865,-212.681,62682
524.578,-223.101,62787
524.291,-233.532,62918
524.004,-243.976,62814
523.717,-254.43,62886
523.43,-264.896,63470
523.143,-275.373,64956
522.857,-285.862,66393
522.57,-296.363,66602
522.283,-306.875,66799
521.996,-317.398,66635
521.709,-327.933,66469
521.422,-338.48,66369
521.135,-349.038,66258
520.848,-359.608,66264
520.561,-370.19,66070
520.274,-380.783,65794
519.988,-391.388,65602
519.701,-402.005,65622
519.414,-412.633,65252
519.127,-423.273,65124
518.84,-433.925,64862
518.553,-444.589,64709
518.266,-455.264,64636
517.979,-465.952,64358
517.692,-476.651,64227
517.405,-487.362,64247
517.119,-498.085,64021
516.832,-508.82,64153
516.545,-519.566,64155
516.258,-530.325,64081
515.971,-541.096,63946
515.684,-551.878,63933
515.397,-562.673,63807
515.11,-573.48,63933
514.823,-584.298,63666
514.536,-595.129,63789
514.249,-605.972,63644
513.963,-616.827,63715
513.676,-627.694,63651
513.389,-638.573,63507
513.102,-649.465,63499
512.815,-660.368,63371
512.528,-671.284,63407
512.241,-682.212,63250
511.954,-693.152,63311
511.667,-704.105,63108
511.38,-715.07,63037
511.094,-726.047,62852
510.807,-737.036,62920
510.52,-748.038,62984
510.233,-759.052,62936
509.946,-770.079,63020
509.659,-781.118,62841
509.372,-792.17,62676
509.085,-803.233,62513
508.798,-814.31,62740
525.227,-199.558,62588
524.94,-209.964,62685
524.653,-220.381,62550
524.366,-230.81,62677
524.079,-241.25,62823
523.792,-251.702,63005
523.505,-262.165,63222
523.218,-272.639,64450
522.931,-283.125,66261
522.644,-293.622,66634
522.358,-304.131,66823
522.071,-314.652,66414
521.784,-325.184,66613
521.497,-335.728,66372
521.21,-346.283,66251
520.923,-356.85,66119
520.636,-367.428,65996
520.349,-378.019,65688
520.062,-388.62,65403
519.775,-399.234,65622
519.489,-409.859,65318
519.202,-420.496,65195
518.915,-431.145,64884
518.628,-441.806,64803
518.341,-452.478,64511
518.054,-463.163,64401
517.767,-473.859,64391
517.48,-484.567,64218
517.193,-495.286,64207
516.906,-506.018,64160
516.62,-516.762,64017
516.333,-527.517,64109
516.046,-538.285,63788
515.759,-549.064,63998
515.472,-559.856,63920
515.185,-570.659,63824
514.898,-581.475,63744
514.611,-592.303,63709
514.324,-603.142,63644
514.037,-613.994,63678
513.751,-624.858,63544
513.464,-635.734,63513
513.177,-646.622,63403
512.89,-657.523,63239
512.603,-668.435,63417
512.316,-679.36,63387
512.029,-690.297,63284
511.742,-701.247,63229
511.455,-712.208,62901
511.168,-723.182,63148
510.881,-734.168,63053
510.595,-745.167,62896
510.308,-756.178,62815
510.021,-767.201,62822
509.734,-778.237,62643
509.447,-789.285,62714
509.16,-800.346,62673
508.873,-811.419,62606
525.301,-196.846,62614
525.015,-207.249,62713
524.728,-217.663,62785
524.441,-228.088,62782
524.154,-238.526,62796
523.867,-248.974,62895
523.58,-259.434,62956
523.293,-269.905,64035
523.006,-280.388,65862
522.719,-290.883,66581
522.432,-301.389,66794
522.146,-311.906,66853
521.859,-322.435,66530
521.572,-332.976,66485
521.285,-343.528,66185
520.998,-354.092,66157
520.711,-364.668,65968
520.424,-375.255,65834
520.137,-385.854,65803
519.85,-396.464,65465
519.563,-407.086,65544
519.277,-417.72,65207
518.99,-428.366,65022
518.703,-439.024,64881
518.416,-449.693,64595
518.129,-460.374,64488
517.842,-471.067,64351
517.555,-481.772,64223
517.268,-492.489,64188
516.981,-503.217,64177
516.694,-513.958,64143
516.407,-524.71,63897
516.121,-535.475,63969
515.834,-546.251,63971
515.547,-557.039,63822
515.26,-567.84,63821
514.973,-578.652,63912
514.686,-589.477,63730
514.399,-600.313,63724
514.112,-611.162,63688
513.825,-622.023,63554
513.538,-632.896,63554
513.252,-643.781,63503
512.965,-654.678,63575
512.678,-665.587,63342
512.391,-676.509,63301
512.104,-687.443,63154
511.817,-698.389,63186
511.53,-709.347,63093
511.243,-720.318,63036
510.956,-731.301,63104
510.669,-742.297,63067
510.383,-753.304,62927
510.096,-764.325,62880
509.809,-775.357,62645
509.522,-786.402,62809
509.235,-797.459,62734
508.948,-808.529,62564
508.661,-819.612,62563
525.089,-204.534,62558
524.802,-214.945,62768
524.516,-225.368,62765
524.229,-235.802,62823
523.942,-246.247,62808
523.655,-256.704,62944
523.368,-267.173,63518
523.081,-277.653,65407
522.794,-288.144,66653
522.507,-298.647,66725
522.22,-309.161,66960
521.933,-319.687,66465
521.647,-330.225,66333
521.36,-340.774,66299
521.073,-351.335,66039
520.786,-361.908,66113
520.499,-372.492,65894
520.212,-383.088,65760
519.925,-393.695,65593
519.638,-404.314,65309
519.351,-414.945,65236
519.064,-425.588,64925
518.778,-436.242,64853
518.491,-446.909,64677
518.204,-457.587,64533
517.917,-468.277,64406
517.63,-478.978,64279
517.343,-489.692,64091
517.056,-500.417,63968
516.769,-511.155,64056
516.482,-521.904,64161
516.195,-532.665,64021
515.909,-543.439,63926
515.622,-554.224,63818
515.335,-565.021,63981
515.048,-575.831,63921
514.761,-586.652,63758
514.474,-597.485,63812
514.187,-608.331,63744
513.9,-619.188,63717
513.613,-630.058,63567
513.326,-640.94,63450
513.04,-651.834,63490
512.753,-662.74,63362
512.466,-673.659,63271
512.179,-684.589,63300
511.892,-695.532,63259
511.605,-706.488,63161
511.318,-717.455,63102
511.031,-728.435,63088
510.744,-739.427,63070
510.457,-750.432,62907
510.17,-761.448,63107
509.884,-772.478,62778
509.597,-783.52,62605
509.31,-794.574,62761
509.023,-805.64,62641
508.736,-816.719,62535
508.661,-819.612,62593

File: Si_onTiO2_40mA_30mW_30sec_5acc_545nm.txt
Wavelength(nm), Raman shift(cm^-1), Intensity(counts)
553.364,768.549,75365
553.077,759.175,75520
552.79,749.791,75114
552.503,740.397,75198
552.216,730.994,75182
551.929,721.58,74979
551.642,712.157,75145
551.356,702.724,75074
551.069,693.282,75103
550.782,683.829,75180
550.495,674.367,75217
550.208,664.894,75076
549.921,655.412,74828
549.634,645.92,75087
549.347,636.418,75078
549.06,626.906,75014
548.773,617.385,74794
548.486,607.853,74562
548.2,598.311,74442
547.913,588.759,73866
547.626,579.197,73737
547.339,569.626,73594
547.052,560.044,73457
546.765,550.452,73148
546.478,540.85,73220
546.191,531.238,73233
545.904,521.616,74035
545.617,511.983,77365
545.331,502.341,87642
545.044,492.688,76778
544.757,483.026,73810
544.47,473.353,73001
544.183,463.67,72655
543.896,453.976,72384
543.609,444.273,71850
543.322,434.559,72019
543.035,424.835,71994
542.748,415.1,72142
542.462,405.356,71763
542.175,395.601,71838
541.888,385.836,71699
541.601,376.06,71506
541.314,366.274,71534
541.027,356.478,71480
540.74,346.671,71628
540.453,336.854,71156
540.166,327.026,70883
539.879,317.188,71019
539.593,307.339,71461
539.306,297.48,71347
539.019,287.611,70488
538.732,277.731,70205
538.445,267.84,67547
538.158,257.939,62410
537.871,248.028,60905
537.584,238.105,60636
537.297,228.172,60552
537.01,218.229,60735
536.723,208.275,60672
553.152,761.621,76922
552.865,752.24,76621
552.578,742.849,76620
552.291,733.448,76535
552.004,724.037,76300
551.717,714.616,76472
551.43,705.186,76365
551.143,695.746,76346
550.857,686.296,76619
550.57,676.836,76380
550.283,667.366,76579
549.996,657.887,76155
549.709,648.397,76382
549.422,638.898,76232
549.135,629.389,76273
548.848,619.869,76216
548.561,610.34,75941
548.274,600.801,75595
547.988,591.252,75314
547.701,581.693,75180
547.414,572.124,74920
547.127,562.544,74610
546.84,552.955,74502
546.553,543.356,74277
546.266,533.746,74591
545.979,524.127,74993
545.692,514.497,76307
545.405,504.857,87878
545.119,495.207,80198
544.832,485.547,75372
544.545,475.877,74155
544.258,466.197,73990
543.971,456.506,73205
543.684,446.805,73156
543.397,437.094,73095
543.11,427.373,72957
542.823,417.641,73031
542.536,407.899,73298
542.249,398.147,73096
541.963,388.384,72837
541.676,378.611,72638
541.389,368.828,72159
541.102,359.034,72462
540.815,349.23,72245
540.528,339.416,72182
540.241,329.591,71753
539.954,319.755,71748
539.667,309.91,72013
539.38,300.053,72327
539.094,290.186,72002
538.807,280.309,70843
538.52,270.421,69682
538.233,260.523,63739
537.946,250.614,61143
537.659,240.695,60626
537.372,230.765,60653
537.085,220.824,60715
536.798,210.873,60551
553.227,764.067,76689
552.94,754.688,76313
552.653,745.299,76262
552.366,735.901,76061
552.079,726.493,76239
551.792,717.075,75987
551.505,707.647,76245
551.218,698.21,76066
550.931,688.762,76161
550.644,679.305,75917
550.358,669.838,76015
550.071,660.361,75946
549.784,650.874,76013
549.497,641.377,75700
549.21,631.87,76135
548.923,622.354,75746
548.636,612.827,75996
548.349,603.291,75535
548.062,593.744,75084
547.775,584.187,74805
547.489,574.621,74496
547.202,565.044,74428
546.915,555.458,73790
546.628,545.861,73894
546.341,536.254,73987
546.054,526.637,74432
545.767,517.01,75308
545.48,507.373,83769
545.193,497.726,82646
544.906,488.068,75492
544.62,478.401,74143
544.333,468.723,73763
544.046,459.035,73233
543.759,449.337,72908
543.472,439.628,72582
543.185,429.91,72631
542.898,420.181,72930
542.611,410.441,73082
542.324,400.692,72573
542.037,390.932,72520
541.751,381.162,72598
541.464,371.381,72215
541.177,361.59,72208
540.89,351.789,72312
540.603,341.977,72161
540.316,332.155,71871
540.029,322.322,71663
539.742,312.479,71686
539.455,302.625,72262
539.168,292.761,71714
538.881,282.887,70761
538.595,273.002,70251
538.308,263.106,65089
538.021,253.2,61404
537.734,243.283,60928
537.447,233.356,60673
537.16,223.418,60710
536.873,213.47,60617
553.301,766.512,77508
553.015,757.136,77525
552.728,747.75,77196
552.441,738.354,77016
552.154,728.948,77018
551.867,719.533,77211
551.58,710.107,77331
551.293,700.672,77295
551.006,691.228,77244
550.719,681.773,77064
550.432,672.308,76730
550.146,662.834,76692
549.859,653.35,76717
549.572,643.855,76717
549.285,634.351,76821
548.998,624.837,76811
548.711,615.313,76713
548.424,605.779,76276
548.137,596.235,76099
547.85,586.681,75646
547.563,577.117,75077
547.277,567.543,75154
546.99,557.959,74970
546.703,548.365,74870
546.416,538.761,74941
546.129,529.147,74976
545.842,519.523,75655
545.555,509.888,80479
545.268,500.243,87416
544.981,490.589,77465
544.694,480.924,74885
544.407,471.249,74388
544.121,461.563,74218
543.834,451.868,73710
543.547,442.162,73307
543.26,432.446,73494
542.973,422.72,73263
542.686,412.983,73629
542.399,403.236,73526
542.112,393.479,73373
541.825,383.711,73186
541.538,373.933,72717
541.252,364.145,72756
540.965,354.347,72911
540.678,344.537,72564
540.391,334.718,72265
540.104,324.888,72055
539.817,315.048,71982
539.53,305.197,75758
539.243,295.336,72382
538.956,285.464,71317
538.669,275.582,70964
538.383,265.689,66928
538.096,255.785,62056
537.809,245.871,60938
537.522,235.947,60766
537.235,226.012,60597
536.948,216.066,60613
536.661,206.11,60663
553.089,759.583,76729
552.802,750.199,76708
552.516,740.806,76686
552.229,731.403,76372
551.942,721.99,76319
551.655,712.567,76581
551.368,703.135,76459
551.081,693.692,76307
550.794,684.24,76733
550.507,674.778,76360
550.22,665.306,76175
549.933,655.825,76158
549.647,646.333,76481
549.36,636.832,76335
549.073,627.32,76285
548.786,617.799,75961
548.499,608.267,75826
548.212,598.726,75271
547.925,589.175,75338
547.638,579.613,74933
547.351,570.042,74687
547.064,560.461,74567
546.778,550.869,74646
546.491,541.268,74349
546.204,531.656,74538
545.917,522.034,75006
545.63,512.402,77884
545.343,502.76,88927
545.056,493.108,78155
544.769,483.446,74796
544.482,473.774,74138
544.195,464.091,73989
543.909,454.398,73485
543.622,444.695,73041
543.335,434.981,73274
543.048,425.258,73277
542.761,415.524,73110
542.474,405.78,73002
542.187,396.025,73006
541.9,386.26,72558
541.613,376.485,72770
541.326,366.7,72769
541.04,356.904,72276
540.753,347.097,72257
540.466,337.281,72020
540.179,327.453,71891
539.892,317.616,71778
539.605,307.768,72253
539.318,297.909,72129
539.031,288.04,71552
538.744,278.161,70945
538.457,268.271,68447
538.17,258.37,62867
537.884,248.459,61035
537.597,238.537,60765
537.31,228.605,60766
537.023,218.662,60710
536.736,208.708,60676
536.661,206.11,60649

File: Si_onTiO2_40mA_30mW_30sec_5acc_545nm_bg.txt
Wavelength(nm), Raman shift(cm^-1), Intensity(counts)
553.364,768.549,76282
553.077,759.175,76377
552.79,749.791,76530
552.503,740.397,76248
552.216,730.994,76156
551.929,721.58,76161
551.642,712.157,76230
551.356,702.724,76038
551.069,693.282,76066
550.782,683.829,75872
550.495,674.367,76086
550.208,664.894,75800
549.921,655.412,75379
549.634,645.92,75226
549.347,636.418,75546
549.06,626.906,75531
548.773,617.385,75381
548.486,607.853,75130
548.2,598.311,74923
547.913,588.759,74310
547.626,579.197,74319
547.339,569.626,74174
547.052,560.044,73852
546.765,550.452,73887
546.478,540.85,73631
546.191,531.238,73526
545.904,521.616,72876
545.617,511.983,72773
545.331,502.341,72793
545.044,492.688,72306
544.757,483.026,72880
544.47,473.353,72608
544.183,463.67,72572
543.896,453.976,72320
543.609,444.273,72255
543.322,434.559,72101
543.035,424.835,71970
542.748,415.1,72028
542.462,405.356,72106
542.175,395.601,71705
541.888,385.836,71550
541.601,376.06,71552
541.314,366.274,71161
541.027,356.478,70963
540.74,346.671,71076
540.453,336.854,70595
540.166,327.026,70408
539.879,317.188,70434
539.593,307.339,70540
539.306,297.48,69982
539.019,287.611,69008
538.732,277.731,68733
538.445,267.84,66711
538.158,257.939,62415
537.871,248.028,60883
537.584,238.105,60749
537.297,228.172,60640
537.01,218.229,60711
536.723,208.275,60591
553.152,761.621,76311
552.865,752.24,76096
552.578,742.849,75846
552.291,733.448,75760
552.004,724.037,75891
551.717,714.616,75797
551.43,705.186,75708
551.143,695.746,75808
550.857,686.296,75672
550.57,676.836,75533
550.283,667.366,75734
549.996,657.887,75320
549.709,648.397,75343
549.422,638.898,75222
549.135,629.389,75122
548.848,619.869,75444
548.561,610.34,75015
548.274,600.801,74983
547.988,591.252,74290
547.701,581.693,74228
547.414,572.124,73863
547.127,562.544,73684
546.84,552.955,73544
546.553,543.356,73107
546.266,533.746,73174
545.979,524.127,72872
545.692,514.497,72460
545.405,504.857,72532
545.119,495.207,72532
544.832,485.547,72443
544.545,475.877,72120
544.258,466.197,72709
543.971,456.506,72249
543.684,446.805,71829
543.397,437.094,71803
543.11,427.373,71618
542.823,417.641,71696
542.536,407.899,71989
542.249,398.147,71384
541.963,388.384,71427
541.676,378.611,71295
541.389,368.828,71193
541.102,359.034,71095
540.815,349.23,71134
540.528,339.416,70861
540.241,329.591,70187
539.954,319.755,69964
539.667,309.91,70073
539.38,300.053,69796
539.094,290.186,68824
538.807,280.309,68572
538.52,270.421,67588
538.233,260.523,63185
537.946,250.614,61019
537.659,240.695,60686
537.372,230.765,60681
537.085,220.824,60593
536.798,210.873,60653
553.227,764.067,75782
552.94,754.688,75889
552.653,745.299,75570
552.366,735.901,75716
552.079,726.493,75543
551.792,717.075,75558
551.505,707.647,75241
551.218,698.21,75443
550.931,688.762,75476
550.644,679.305,75268
550.358,669.838,75238
550.071,660.361,75148
549.784,650.874,75006
549.497,641.377,75072
549.21,631.87,74781
548.923,622.354,75270
548.636,612.827,74880
548.349,603.291,74704
548.062,593.744,74358
547.775,584.187,74154
547.489,574.621,73833
547.202,565.044,73501
546.915,555.458,73474
546.628,545.861,73069
546.341,536.254,72842
546.054,526.637,72687
545.767,517.01,72352
545.48,507.373,72372
545.193,497.726,72014
544.906,488.068,72286
544.62,478.401,72218
544.333,468.723,72218
544.046,459.035,72075
543.759,449.337,71855
543.472,439.628,71737
543.185,429.91,71538
542.898,420.181,71580
542.611,410.441,71770
542.324,400.692,71321
542.037,390.932,71201
541.751,381.162,70992
541.464,371.381,71184
541.177,361.59,70832
540.89,351.789,70919
540.603,341.977,70512
540.316,332.155,70120
540.029,322.322,70001
539.742,312.479,70083
539.455,302.625,69886
539.168,292.761,69247
538.881,282.887,68490
538.595,273.002,68067
538.308,263.106,64335
538.021,253.2,61242
537.734,243.283,60693
537.447,233.356,60636
537.16,223.418,60542
536.873,213.47,60506
553.301,766.512,75917
553.015,757.136,75624
552.728,747.75,75465
552.441,738.354,75454
552.154,728.948,75417
551.867,719.533,75713
551.58,710.107,75356
551.293,700.672,75446
551.006,691.228,75426
550.719,681.773,75285
550.432,672.308,75367
550.146,662.834,75229
549.859,653.35,75094
549.572,643.855,75144
549.285,634.351,75106
548.998,624.837,75083
548.711,615.313,74721
548.424,605.779,75006
548.137,596.235,74141
547.85,586.681,73790
547.563,577.117,73439
547.277,567.543,73675
546.99,557.959,73703
546.703,548.365,73487
546.416,538.761,73199
546.129,529.147,72710
545.842,519.523,72476
545.555,509.888,72234
545.268,500.243,72226
544.981,490.589,71943
544.694,480.924,72321
544.407,471.249,72027
544.121,461.563,72189
543.834,451.868,71880
543.547,442.162,71401
543.26,432.446,71743
542.973,422.72,71458
542.686,412.983,71473
542.399,403.236,71695
542.112,393.479,71158
541.825,383.711,71107
541.538,373.933,71067
541.252,364.145,70869
540.965,354.347,70866
540.678,344.537,70622
540.391,334.718,70123
540.104,324.888,69640
539.817,315.048,70038
539.53,305.197,69953
539.243,295.336,69351
538.956,285.464,68708
538.669,275.582,68479
538.383,265.689,65595
538.096,255.785,61603
537.809,245.871,60877
537.522,235.947,60627
537.235,226.012,60629
536.948,216.066,60518
536.661,206.11,60493
553.089,759.583,75975
552.802,750.199,75462
552.516,740.806,75662
552.229,731.403,75868
551.942,721.99,75253
551.655,712.567,75497
551.368,703.135,75549
551.081,693.692,75492
550.794,684.24,75449
550.507,674.778,75114
550.22,665.306,75363
549.933,655.825,75412
549.647,646.333,75061
549.36,636.832,75000
549.073,627.32,75221
548.786,617.799,75001
548.499,608.267,74862
548.212,598.726,74316
547.925,589.175,74169
547.638,579.613,73777
547.351,570.042,73494
547.064,560.461,73274
546.778,550.869,73238
546.491,541.268,73158
546.204,531.656,73036
545.917,522.034,72605
545.63,512.402,72205
545.343,502.76,72495
545.056,493.108,72223
544.769,483.446,71963
544.482,473.774,72410
544.195,464.091,72233
543.909,454.398,72025
543.622,444.695,71914
543.335,434.981,71534
543.048,425.258,71457
542.761,415.524,71570
542.474,405.78,71605
542.187,396.025,71263
541.9,386.26,71081
541.613,376.485,71002
541.326,366.7,71034
541.04,356.904,70795
540.753,347.097,70647
540.466,337.281,70386
540.179,327.453,69760
539.892,317.616,69974
539.605,307.768,70093
539.318,297.909,69662
539.031,288.04,68780
538.744,278.161,68507
538.457,268.271,66653
538.17,258.37,62285
537.884,248.459,60892
537.597,238.537,60702
537.31,228.605,60551
537.023,218.662,60556
536.736,208.708,60545
536.661,206.11,60562