Folder: flash_scratch/tomke/20240809/raw_data (part 7)

File: TiO2_flash_50mA_545.txt
Wavelength(nm), Raman shift(cm^-1), Intensity(counts)
552.12,-3207.54,64443
551.876,-3215.56,64746
551.632,-3223.58,64817
551.387,-3231.61,64619
551.143,-3239.65,64752
550.899,-3247.69,64658
550.655,-3255.74,64679
550.41,-3263.8,64542
550.166,-3271.87,64570
549.922,-3279.94,64822
549.678,-3288.02,64761
549.433,-3296.1,64679
549.189,-3304.2,64602
548.945,-3312.3,64707
548.701,-3320.41,64659
548.456,-3328.52,64528
548.212,-3336.65,64477
547.968,-3344.78,64596
547.724,-3352.92,64301
547.48,-3361.06,64333
547.235,-3369.21,64280
546.991,-3377.37,64165
546.747,-3385.54,64178
546.503,-3393.71,64071
546.258,-3401.89,63831
546.014,-3410.08,63768
545.77,-3418.28,64006
545.526,-3426.48,63729
545.281,-3434.69,63527
545.037,-3442.91,63786
544.793,-3451.14,63561
544.549,-3459.37,63614
544.304,-3467.61,63536
544.06,-3475.86,63613
543.816,-3484.11,63329
543.572,-3492.37,63527
543.328,-3500.64,63456
543.083,-3508.92,63247
542.839,-3517.2,63203
542.595,-3525.5,63441
542.351,-3533.8,63285
542.106,-3542.1,63168
541.862,-3550.42,63201
541.618,-3558.74,63202
541.374,-3567.07,63163
541.129,-3575.41,63121
540.885,-3583.75,62919
540.641,-3592.1,62769
540.397,-3600.46,62813
540.152,-3608.83,62922
539.908,-3617.21,62891
539.664,-3625.59,62814
539.42,-3633.98,62640
539.175,-3642.38,62616
538.931,-3650.78,62491
538.687,-3659.19,62469
538.443,-3667.61,62466
538.199,-3676.04,62411
537.954,-3684.48,62264
551.94,-3213.46,65032
551.695,-3221.49,65040
551.451,-3229.51,65021
551.207,-3237.55,64846
550.963,-3245.59,64974
550.718,-3253.64,64827
550.474,-3261.7,64968
550.23,-3269.76,64702
549.986,-3277.83,64774
549.741,-3285.91,64790
549.497,-3293.99,64912
549.253,-3302.09,64613
549.009,-3310.19,64770
548.764,-3318.29,64875
548.52,-3326.41,64781
548.276,-3334.53,64670
548.032,-3342.66,64742
547.787,-3350.79,64564
547.543,-3358.94,64521
547.299,-3367.09,64393
547.055,-3375.24,64550
546.811,-3383.41,64166
546.566,-3391.58,64216
546.322,-3399.76,64130
546.078,-3407.95,64048
545.834,-3416.14,64499
545.589,-3424.34,64132
545.345,-3432.55,63891
545.101,-3440.77,63946
544.857,-3448.99,63748
544.612,-3457.22,63734
544.368,-3465.46,63674
544.124,-3473.7,63714
543.88,-3481.96,63636
543.635,-3490.22,63464
543.391,-3498.48,63436
543.147,-3506.76,63445
542.903,-3515.04,63440
542.659,-3523.33,63366
542.414,-3531.63,63373
542.17,-3539.94,63305
541.926,-3548.25,63264
541.682,-3556.57,63306
541.437,-3564.9,63358
541.193,-3573.23,63213
540.949,-3581.57,63060
540.705,-3589.92,63280
540.46,-3598.28,63157
540.216,-3606.65,62935
539.972,-3615.02,62876
539.728,-3623.4,63028
539.483,-3631.79,62636
539.239,-3640.18,62658
538.995,-3648.59,62656
538.751,-3657,62670
538.506,-3665.42,62468
538.262,-3673.84,62448
538.018,-3682.28,62411
552.003,-3211.37,65059
551.759,-3219.39,65042
551.515,-3227.42,64873
551.271,-3235.45,64869
551.026,-3243.49,64963
550.782,-3251.54,65019
550.538,-3259.59,65018
550.294,-3267.66,64738
550.049,-3275.73,64956
549.805,-3283.8,64869
549.561,-3291.88,64647
549.317,-3299.97,64769
549.072,-3308.07,64732
548.828,-3316.18,64796
548.584,-3324.29,64940
548.34,-3332.41,64667
548.095,-3340.54,64610
547.851,-3348.67,64695
547.607,-3356.81,64652
547.363,-3364.96,64509
547.118,-3373.11,64349
546.874,-3381.28,64331
546.63,-3389.45,64152
546.386,-3397.62,64051
546.142,-3405.81,64049
545.897,-3414,63857
545.653,-3422.2,63953
545.409,-3430.41,63850
545.165,-3438.62,63946
544.92,-3446.84,63832
544.676,-3455.07,63867
544.432,-3463.31,63780
544.188,-3471.55,63785
543.943,-3479.8,63674
543.699,-3488.06,63666
543.455,-3496.33,63411
543.211,-3504.6,63621
542.966,-3512.88,63526
542.722,-3521.17,63440
542.478,-3529.47,63421
542.234,-3537.77,63655
541.99,-3546.08,63373
541.745,-3554.4,63467
541.501,-3562.72,63316
541.257,-3571.06,63236
541.013,-3579.4,63188
540.768,-3587.74,63030
540.524,-3596.1,63212
540.28,-3604.46,62914
540.036,-3612.83,63099
539.791,-3621.21,62993
539.547,-3629.6,62772
539.303,-3637.99,62723
539.059,-3646.39,62525
538.814,-3654.8,62681
538.57,-3663.22,62543
538.326,-3671.64,62528
538.082,-3680.08,62518
552.067,-3209.28,63651
551.823,-3217.3,63825
551.578,-3225.32,63768
551.334,-3233.36,63878
551.09,-3241.39,63807
550.846,-3249.44,63793
550.602,-3257.49,63814
550.357,-3265.55,63754
550.113,-3273.62,63712
549.869,-3281.69,63750
549.625,-3289.78,63861
549.38,-3297.86,63747
549.136,-3305.96,63635
548.892,-3314.06,63613
548.648,-3322.17,63636
548.403,-3330.29,63750
548.159,-3338.41,63689
547.915,-3346.55,63642
547.671,-3354.69,63591
547.426,-3362.83,63576
547.182,-3370.99,63522
546.938,-3379.15,63255
546.694,-3387.31,63410
546.449,-3395.49,63153
546.205,-3403.67,63029
545.961,-3411.86,63007
545.717,-3420.06,63155
545.473,-3428.27,63018
545.228,-3436.48,62992
544.984,-3444.7,62931
544.74,-3452.92,62866
544.496,-3461.16,62962
544.251,-3469.4,62788
544.007,-3477.65,62805
543.763,-3485.91,62745
543.519,-3494.17,62792
543.274,-3502.44,62647
543.03,-3510.72,62861
542.786,-3519.01,62846
542.542,-3527.3,62669
542.297,-3535.6,62682
542.053,-3543.91,62672
541.809,-3552.23,62569
541.565,-3560.55,62625
541.321,-3568.88,62453
541.076,-3577.22,64274
540.832,-3585.57,62423
540.588,-3593.92,62398
540.344,-3602.28,62358
540.099,-3610.65,62155
539.855,-3619.03,62239
539.611,-3627.41,62246
539.367,-3635.8,62263
539.122,-3644.2,62145
538.878,-3652.61,62061
538.634,-3661.02,61930
538.39,-3669.45,62007
538.145,-3677.87,61846
537.901,-3686.31,61840
551.886,-3215.21,62861
551.642,-3223.23,62908
551.398,-3231.26,62945
551.154,-3239.3,62917
550.909,-3247.34,63004
550.665,-3255.39,62937
550.421,-3263.45,62913
550.177,-3271.51,62910
549.933,-3279.59,63009
549.688,-3287.67,63003
549.444,-3295.75,63030
549.2,-3303.85,62981
548.956,-3311.95,62849
548.711,-3320.06,62932
548.467,-3328.17,62885
548.223,-3336.29,63017
547.979,-3344.42,62907
547.734,-3352.56,62835
547.49,-3360.71,62862
547.246,-3368.86,62634
547.002,-3377.02,62710
546.757,-3385.18,62723
546.513,-3393.36,62522
546.269,-3401.54,62471
546.025,-3409.73,62370
545.78,-3417.92,62818
545.536,-3426.12,62316
545.292,-3434.34,62312
545.048,-3442.55,62218
544.804,-3450.78,62320
544.559,-3459.01,62250
544.315,-3467.25,62133
544.071,-3475.5,62274
543.827,-3483.75,62160
543.582,-3492.01,62156
543.338,-3500.28,62190
543.094,-3508.56,62122
542.85,-3516.84,62191
542.605,-3525.14,62071
542.361,-3533.44,62057
542.117,-3541.74,61950
541.873,-3550.06,61986
541.628,-3558.38,62072
541.384,-3566.71,61946
541.14,-3575.04,61814
540.896,-3583.39,61976
540.652,-3591.74,61795
540.407,-3600.1,61778
540.163,-3608.47,61777
539.919,-3616.84,61863
539.675,-3625.22,61670
539.43,-3633.61,61715
539.186,-3642.01,61663
538.942,-3650.41,61573
538.698,-3658.83,61510
538.453,-3667.25,61451
538.209,-3675.68,61514
537.965,-3684.11,61421
537.901,-3686.31,61358